----------------------------------------------------------------------
SPECTRUM: CWW_E_ext
FILTER:        SDSS i + CCD, [MT]  no atmosphere (Ref. F. Castander)
----------------------------------------------------------------------
      0.00000      0.00000
   0.00461578   0.00175404
   0.00925291   0.00364470
    0.0139114   0.00577582
    0.0185914   0.00816305
    0.0232930    0.0107528
    0.0280163    0.0134480
    0.0327615    0.0161414
    0.0375284    0.0187504
    0.0423174    0.0212375
    0.0471286    0.0235926
    0.0519619    0.0258188
    0.0568175    0.0279232
    0.0616956    0.0299466
    0.0665962    0.0319690
    0.0715193    0.0340912
    0.0764652    0.0364204
    0.0814340    0.0390342
    0.0864257    0.0419676
    0.0914403    0.0452059
    0.0964782    0.0487015
     0.101539    0.0523848
     0.106624    0.0561840
     0.111732    0.0600453
     0.116863    0.0639421
     0.122018    0.0678646
     0.127198    0.0718038
     0.132400    0.0757467
     0.137627    0.0796758
     0.142878    0.0835848
     0.148154    0.0874911
     0.153453    0.0914168
     0.158777    0.0953729
     0.164126    0.0993375
     0.169499     0.103260
     0.174898     0.107096
     0.180321     0.110868
     0.185769     0.114683
     0.191242     0.118683
     0.196741     0.122963
     0.202264     0.127519
     0.207814     0.132282
     0.213389     0.137169
     0.218990     0.142119
     0.224616     0.147103
     0.230269     0.152113
     0.235947     0.157155
     0.241652     0.162244
     0.247383     0.167399
     0.253141     0.172636
     0.258925     0.177972
     0.264736     0.183419
     0.270574     0.188986
     0.276439     0.194686
     0.282331     0.200520
     0.288249     0.206467
     0.294196     0.212509
     0.300170     0.218641
     0.306171     0.224896
     0.312200     0.231335
     0.318257     0.238021
     0.324342     0.244992
     0.330454     0.252263
     0.336596     0.259804
     0.342765     0.267567
     0.348963     0.275507
     0.355189     0.283592
     0.361445     0.291804
     0.367729     0.300135
     0.374042     0.308560
     0.380384     0.317035
     0.386756     0.325500
     0.393157     0.333892
     0.399587     0.342155
     0.406048     0.350232
     0.412538     0.358070
     0.419057     0.365603
     0.425608     0.372770
     0.432188     0.379530
     0.438799     0.385899
     0.445440     0.391988
     0.452112     0.397974
     0.458814     0.404053
     0.465548     0.410374
     0.472312     0.417016
     0.479108     0.423996
     0.485936     0.431279
     0.492794     0.438812
     0.499685     0.446553
     0.506607     0.454481
     0.513561     0.462604
     0.520548     0.470961
     0.527566     0.479582
     0.534617     0.488488
     0.541700     0.497702
     0.548817     0.507257
     0.555966     0.517212
     0.563148     0.527636
     0.570363     0.538624
     0.577611     0.550280
     0.584893     0.562670
     0.592209     0.575769
     0.599558     0.589454
     0.606941     0.603554
     0.614359     0.617900
     0.621810     0.632339
     0.629296     0.646756
     0.636817     0.661109
     0.644372     0.675479
     0.651962     0.690059
     0.659587     0.705029
     0.667247     0.720471
     0.674943     0.736331
     0.682674     0.752493
     0.690441     0.768904
     0.698244     0.785628
     0.706082     0.802848
     0.713957     0.820799
     0.721869     0.839669
     0.729816     0.859592
     0.737801     0.880678
     0.745822     0.903079
     0.753881     0.926942
     0.761976     0.952365
     0.770109     0.979319
     0.778279      1.00763
     0.786488      1.03704
     0.794734      1.06722
     0.803018      1.09788
     0.811340      1.12881
     0.819701      1.15991
     0.828100      1.19111
     0.836538      1.22241
     0.845015      1.25372
     0.853532      1.28493
     0.862087      1.31594
     0.870682      1.34668
     0.879317      1.37718
     0.887991      1.40751
     0.896706      1.43773
     0.905461      1.46787
     0.914256      1.49788
     0.923092      1.52772
     0.931968      1.55738
     0.940886      1.58681
     0.949845      1.61596
     0.958845      1.64470
     0.967886      1.67286
     0.976970      1.70033
     0.986095      1.72713
     0.995262      1.75349
      1.00447      1.77960
      1.01372      1.80563
      1.02302      1.83158
      1.03236      1.85743
      1.04174      1.88320
      1.05116      1.90903
      1.06063      1.93515
      1.07014      1.96173
      1.07970      1.98882
      1.08930      2.01625
      1.09894      2.04369
      1.10863      2.07059
      1.11836      2.09631
      1.12814      2.12015
      1.13796      2.14156
      1.14783      2.16031
      1.15774      2.17651
      1.16770      2.19069
      1.17771      2.20353
      1.18776      2.21563
      1.19786      2.22750
      1.20800      2.23957
      1.21820      2.25223
      1.22844      2.26587
      1.23872      2.28083
      1.24905      2.29732
      1.25944      2.31539
      1.26986      2.33492
      1.28034      2.35575
      1.29087      2.37768
      1.30144      2.40045
      1.31206      2.42377
      1.32274      2.44735
      1.33346      2.47087
      1.34423      2.49411
      1.35505      2.51696
      1.36592      2.53949
      1.37684      2.56193
      1.38781      2.58464
      1.39883      2.60799
      1.40991      2.63222
      1.42103      2.65743
      1.43220      2.68360
      1.44343      2.71059
      1.45471      2.73830
      1.46604      2.76666
      1.47742      2.79570
      1.48886      2.82542
      1.50035      2.85584
      1.51189      2.88698
      1.52348      2.91893
      1.53513      2.95177
      1.54683      2.98560
      1.55859      3.02047
      1.57040      3.05641
      1.58226      3.09345
      1.59418      3.13158
      1.60615      3.17088
      1.61818      3.21148
      1.63027      3.25354
      1.64241      3.29707
      1.65461      3.34189
      1.66686      3.38768
      1.67917      3.43397
      1.69153      3.48024
      1.70396      3.52604
      1.71644      3.57108
      1.72898      3.61526
      1.74157      3.65868
      1.75423      3.70161
      1.76694      3.74445
      1.77971      3.78757
      1.79254      3.83132
      1.80543      3.87598
      1.81838      3.92161
      1.83139      3.96813
      1.84446      4.01532
      1.85759      4.06294
      1.87078      4.11071
      1.88403      4.15833
      1.89734      4.20560
      1.91072      4.25240
      1.92415      4.29858
      1.93765      4.34404
      1.95121      4.38860
      1.96483      4.43212
      1.97852      4.47441
      1.99226      4.51531
      2.00608      4.55463
      2.01995      4.59224
      2.03389      4.62804
      2.04789      4.66204
      2.06196      4.69430
      2.07610      4.72485
      2.09030      4.75368
      2.10456      4.78072
      2.11889      4.80589
      2.13329      4.82914
      2.14775      4.85046
      2.16228      4.86985
      2.17687      4.88738
      2.19154      4.90309
      2.20627      4.91701
      2.22107      4.92918
      2.23594      4.93962
      2.25087      4.94840
      2.26588      4.95567
      2.28095      4.96170
      2.29610      4.96683
      2.31131      4.97132
      2.32660      4.97534
      2.34195      4.97896
      2.35738      4.98225
      2.37287      4.98524
      2.38844      4.98798
      2.40408      4.99058
      2.41979      4.99315
      2.43558      4.99582
      2.45144      4.99865
      2.46737      5.00170
      2.48337      5.00497
      2.49945      5.00850
      2.51560      5.01228
      2.53183      5.01636
      2.54813      5.02080
      2.56451      5.02572
      2.58096      5.03118
      2.59749      5.03724
      2.61410      5.04392
      2.63078      5.05120
      2.64754      5.05906
      2.66438      5.06748
      2.68129      5.07643
      2.69828      5.08587
      2.71535      5.09577
      2.73250      5.10610
      2.74973      5.11684
      2.76704      5.12797
      2.78443      5.13948
      2.80189      5.15136
      2.81944      5.16361
      2.83707      5.17618
      2.85478      5.18905
      2.87258      5.20214
      2.89045      5.21533
      2.90841      5.22854
      2.92645      5.24171
      2.94457      5.25479
      2.96278      5.26778
      2.98107      5.28064
      2.99945      5.29338
      3.01791      5.30597
      3.03645      5.31842
      3.05509      5.33068
      3.07380      5.34274
      3.09261      5.35457
      3.11150      5.36613
      3.13048      5.37740
      3.14954      5.38838
      3.16869      5.39905
      3.18794      5.40941
      3.20727      5.41944
      3.22669      5.42914
      3.24620      5.43850
      3.26580      5.44752
      3.28549      5.45620
      3.30527      5.46452
      3.32514      5.47249
      3.34510      5.48010
      3.36516      5.48735
      3.38531      5.49425
      3.40555      5.50078
      3.42588      5.50697
      3.44631      5.51280
      3.46684      5.51831
      3.48745      5.52353
      3.50817      5.52851
      3.52898      5.53327
      3.54988      5.53785
      3.57088      5.54224
      3.59198      5.54644
      3.61318      5.55044
      3.63447      5.55422
      3.65586      5.55778
      3.67735      5.56108
      3.69894      5.56410
      3.72063      5.56681
      3.74242      5.56917
      3.76431      5.57120
      3.78630      5.57293
      3.80839      5.57444
      3.83059      5.57584
      3.85288      5.57726
      3.87529      5.57882
      3.89779      5.58057
      3.92039      5.58248
      3.94311      5.58437
      3.96592      5.58600
      3.98884      5.58711
      4.01187      5.58751
      4.03501      5.58715
      4.05825      5.58603
      4.08159      5.58419
      4.10505      5.58172
      4.12861      5.57873
      4.15229      5.57533
      4.17607      5.57164
      4.19996      5.56771
      4.22396      5.56360
      4.24808      5.55938
      4.27230      5.55514
      4.29663      5.55090
      4.32108      5.54664
      4.34564      5.54226
      4.37032      5.53768
      4.39511      5.53286
      4.42001      5.52786
      4.44503      5.52277
      4.47016      5.51768
      4.49541      5.51268
      4.52077      5.50781
      4.54626      5.50316
      4.57186      5.49884
      4.59758      5.49504
      4.62341      5.49197
      4.64937      5.48982
      4.67545      5.48865
      4.70164      5.48832
      4.72796      5.48855
      4.75440      5.48896
      4.78096      5.48927
      4.80764      5.48932
      4.83445      5.48914
      4.86138      5.48875
      4.88844      5.48809
      4.91562      5.48693
      4.94292      5.48505
      4.97035      5.48236
      4.99791      5.47879
      5.02560      5.47436
      5.05341      5.46913
      5.08135      5.46351
      5.10942      5.45811
      5.13762      5.45341
      5.16595      5.44943
      5.19441      5.44586
      5.22300      5.44239
      5.25173      5.43896
      5.28058      5.43564
      5.30957      5.43244
      5.33870      5.42927
      5.36796      5.42606
      5.39735      5.42290
      5.42688      5.41984
      5.45654      5.41680
      5.48634      5.41348
      5.51628      5.40962
      5.54636      5.40528
      5.57658      5.40086
      5.60693      5.39687
      5.63743      5.39361
      5.66807      5.39114
      5.69885      5.38927
      5.72977      5.38781
      5.76083      5.38669
      5.79204      5.38581
      5.82339      5.38512
      5.85488      5.38457
      5.88652      5.38404
      5.91831      5.38339
      5.95024      5.38251
      5.98232      5.38134
      6.01455      5.38012
      6.04693      5.37921
      6.07946      5.37895
      6.11213      5.37930
      6.14496      5.37999
      6.17794      5.38057
      6.21107      5.38069
      6.24436      5.38045
      6.27780      5.38052
      6.31139      5.38165
      6.34514      5.38418
      6.37904      5.38823
      6.41310      5.39385
      6.44732      5.40115
      6.48170      5.41019
      6.51623      5.42079
      6.55092      5.43267
      6.58578      5.44584
      6.62079      5.46031
      6.65597      5.47598
      6.69130      5.49259
      6.72681      5.50992
      6.76247      5.52773
      6.79830      5.54571
      6.83430      5.56369
      6.87046      5.58181
      6.90679      5.60026
      6.94328      5.61902
      6.97995      5.63802
      7.01678      5.65740
      7.05378      5.67739
      7.09096      5.69800
      7.12831      5.71882
      7.16582      5.73920
      7.20352      5.75852
      7.24138      5.77654
      7.27942      5.79355
      7.31764      5.81018
      7.35603      5.82715
      7.39460      5.84468
      7.43335      5.86245
      7.47227      5.87985
      7.51138      5.89633
      7.55067      5.91167
      7.59014      5.92602
      7.62979      5.93934
      7.66962      5.95143
      7.70964      5.96245
      7.74984      5.97354
      7.79023      5.98617
      7.83080      6.00080
      7.87156      6.01668
      7.91251      6.03271
      7.95365      6.04800
      7.99498      6.06197
      8.03649      6.07417
      8.07821      6.08425
      8.12011      6.09198
      8.16220      6.09720
      8.20450      6.09991
      8.24698      6.10020
      8.28966      6.09843
      8.33254      6.09515
      8.37562      6.09095
      8.41890      6.08626
      8.46237      6.08136
      8.50605      6.07638
      8.54993      6.07141
      8.59401      6.06652
      8.63829      6.06175
      8.68278      6.05715
      8.72747      6.05274
      8.77237      6.04852
      8.81748      6.04444
      8.86279      6.04043
      8.90832      6.03643
      8.95405      6.03242
      9.00000      6.02839
      9.04616      6.02434
      9.09253      6.02022
      9.13911      6.01597
      9.18591      6.01158
      9.23293      6.00718
      9.28016      6.00288
      9.32762      5.99874
      9.37529      5.99478
      9.42317      5.99095
      9.47128      5.98724
      9.51962      5.98364
      9.56818      5.98010
      9.61696      5.97657
      9.66596      5.97299
      9.71519      5.96934
      9.76465      5.96562
      9.81434      5.96186
      9.86426      5.95816
      9.91440      5.95458
      9.96478      5.95115
      10.0154      5.94784
      10.0662      5.94458
      10.1173      5.94138
      10.1686      5.93829
      10.2202      5.93543
      10.2720      5.93286
      10.3240      5.93056
      10.3763      5.92848
      10.4288      5.92655
      10.4815      5.92470
      10.5345      5.92286
      10.5878      5.92097
      10.6413      5.91898
      10.6950      5.91689
      10.7490      5.91468
      10.8032      5.91235
      10.8577      5.90991
      10.9124      5.90733
      10.9674      5.90457
      11.0226      5.90165
      11.0781      5.89868
      11.1339      5.89581
      11.1899      5.89316
      11.2462      5.89078
      11.3027      5.88864
      11.3595      5.88668
      11.4165      5.88494
      11.4738      5.88346
      11.5314      5.88232
      11.5893      5.88150
      11.6474      5.88094
      11.7057      5.88051
      11.7644      5.88012
      11.8233      5.87965
      11.8825      5.87900
      11.9420      5.87816
      12.0017      5.87716
      12.0617      5.87604
      12.1220      5.87483
      12.1826      5.87356
      12.2434      5.87221
      12.3045      5.87080
      12.3660      5.86932
      12.4277      5.86778
      12.4896      5.86627
      12.5519      5.86488
      12.6144      5.86371
      12.6773      5.86279
      12.7404      5.86206
      12.8038      5.86143
      12.8676      5.86083
      12.9316      5.86026
      12.9959      5.85975
      13.0605      5.85937
      13.1254      5.85916
      13.1906      5.85913
      13.2561      5.85928
      13.3219      5.85961
      13.3880      5.86010
      13.4544      5.86072
      13.5211      5.86146
      13.5881      5.86228
      13.6555      5.86320
      13.7231      5.86420
      13.7911      5.86529
      13.8594      5.86646
      13.9279      5.86765
      13.9968      5.86883
      14.0661      5.86993
      14.1356      5.87092
      14.2055      5.87176
      14.2757      5.87243
      14.3462      5.87291
      14.4170      5.87323
      14.4882      5.87343
      14.5597      5.87360
      14.6315      5.87381
      14.7036      5.87414
      14.7761      5.87465
      14.8489      5.87540
      14.9221      5.87643
      14.9956      5.87774
      15.0694      5.87931
      15.1436      5.88108
      15.2181      5.88302
      15.2930      5.88509
      15.3682      5.88726
      15.4437      5.88949
      15.5196      5.89174
      15.5959      5.89393
      15.6725      5.89596
      15.7494      5.89775
      15.8267      5.89931
      15.9044      5.90079
      15.9824      5.90230
      16.0608      5.90388
      16.1396      5.90554
      16.2187      5.90724
      16.2982      5.90902
      16.3780      5.91092
      16.4582      5.91302
      16.5388      5.91538
      16.6198      5.91803
      16.7011      5.92097
      16.7828      5.92418
      16.8649      5.92759
      16.9473      5.93117
      17.0302      5.93485
      17.1134      5.93860
      17.1970      5.94239
      17.2810      5.94621
      17.3654      5.95005
      17.4502      5.95391
      17.5353      5.95781
      17.6209      5.96180
      17.7068      5.96589
      17.7932      5.97012
      17.8799      5.97451
      17.9671      5.97906
      18.0546      5.98377
      18.1426      5.98867
      18.2309      5.99376
      18.3197      5.99903
      18.4089      6.00447
      18.4984      6.01005
      18.5884      6.01576
      18.6789      6.02157
      18.7697      6.02750
      18.8609      6.03355
      18.9526      6.03973
      19.0447      6.04604
      19.1372      6.05248
      19.2302      6.05906
      19.3236      6.06577
      19.4174      6.07259
      19.5116      6.07953
      19.6063      6.08657
      19.7014      6.09369
      19.7970      6.10086
      19.8930      6.10808
      19.9894      6.11534
      20.0863      6.12259
      20.1836      6.12982
      20.2814      6.13700
      20.3796      6.14413
      20.4783      6.15120
      20.5774      6.15821
      20.6770      6.16515
      20.7771      6.17202
      20.8776      6.17880
      20.9786      6.18552
      21.0800      6.19219
      21.1820      6.19887
      21.2844      6.20563
      21.3872      6.21250
      21.4905      6.21950
      21.5944      6.22664
      21.6986      6.23391
      21.8034      6.24130
      21.9087      6.24877
      22.0144      6.25630
      22.1206      6.26389
      22.2274      6.27150
      22.3346      6.27909
      22.4423      6.28661
      22.5505      6.29405
      22.6592      6.30139
      22.7684      6.30864
      22.8781      6.31582
      22.9883      6.32298
      23.0991      6.33015
      23.2103      6.33735
      23.3220      6.34461
      23.4343      6.35196
      23.5471      6.35942
      23.6604      6.36702
      23.7742      6.37477
      23.8886      6.38265
      24.0035      6.39066
      24.1189      6.39878
      24.2348      6.40700
      24.3513      6.41532
      24.4683      6.42375
      24.5859      6.43229
      24.7040      6.44096
      24.8226      6.44977
      24.9418      6.45871
      25.0615      6.46780
      25.1818      6.47705
      25.3027      6.48646
      25.4241      6.49606
      25.5461      6.50584
      25.6686      6.51580
      25.7917      6.52594
      25.9153      6.53625
      26.0396      6.54673
      26.1644      6.55736
      26.2898      6.56817
      26.4157      6.57913
      26.5423      6.59025
      26.6694      6.60153
      26.7971      6.61295
      26.9254      6.62450
      27.0543      6.63618
      27.1838      6.64800
      27.3139      6.65994
      27.4446      6.67203
      27.5759      6.68427
      27.7078      6.69666
      27.8403      6.70920
      27.9734      6.72190
      28.1072      6.73475
      28.2415      6.74774
      28.3765      6.76086
      28.5121      6.77409
      28.6483      6.78742
      28.7852      6.80082
      28.9226      6.81430
      29.0608      6.82782
      29.1995      6.84138
      29.3389      6.85496
      29.4789      6.86859
      29.6196      6.88231
      29.7610      6.89616
      29.9030      6.91018
      30.0456      6.92436
      30.1889      6.93869
      30.3329      6.95314
      30.4775      6.96770
      30.6228      6.98235
      30.7687      6.99708
      30.9154      7.01191
      31.0627      7.02681
      31.2107      7.04177
      31.3594      7.05676
      31.5087      7.07175
      31.6588      7.08673
      31.8095      7.10174
      31.9610      7.11681
      32.1131      7.13198
      32.2660      7.14725
      32.4195      7.16262
      32.5738      7.17807
      32.7287      7.19361
      32.8844      7.20925
      33.0408      7.22499
      33.1979      7.24083
      33.3558      7.25678
      33.5144      7.27284
      33.6737      7.28901
      33.8337      7.30531
      33.9945      7.32173
      34.1560      7.33827
      34.3183      7.35495
      34.4813      7.37175
      34.6451      7.38869
      34.8096      7.40575
      34.9749      7.42295
      35.1410      7.44027
      35.3078      7.45773
      35.4754      7.47531
      35.6438      7.49303
      35.8129      7.51088
      35.9828      7.52887
      36.1535      7.54699
      36.3250      7.56524
      36.4973      7.58363
      36.6704      7.60216
      36.8443      7.62083
      37.0189      7.63965
      37.1944      7.65860
      37.3707      7.67770
      37.5478      7.69694
      37.7258      7.71632
      37.9045      7.73585
      38.0841      7.75551
      38.2645      7.77533
      38.4457      7.79529
      38.6278      7.81539
      38.8107      7.83565
      38.9945      7.85605
      39.1791      7.87660
      39.3645      7.89729
      39.5509      7.91813
      39.7380      7.93912
      39.9261      7.96026
      40.1150      7.98155
      40.3048      8.00299
      40.4954      8.02458
      40.6869      8.04632
      40.8794      8.06821
      41.0727      8.09025
      41.2669      8.11245
      41.4620      8.13480
      41.6580      8.15730
      41.8549      8.17997
      42.0527      8.20279
      42.2514      8.22577
      42.4510      8.24890
      42.6516      8.27219
      42.8531      8.29563
      43.0555      8.31924
      43.2588      8.34300
      43.4631      8.36693
      43.6684      8.39102
      43.8745      8.41527
      44.0817      8.43969
      44.2898      8.46428
      44.4988      8.48902
      44.7088      8.51393
      44.9198      8.53899
      45.1318      8.56423
      45.3447      8.58962
      45.5586      8.61518
      45.7735      8.64091
      45.9894      8.66680
      46.2063      8.69286
      46.4242      8.71909
      46.6431      8.74549
      46.8630      8.77206
      47.0839      8.79881
      47.3059      8.82573
      47.5289      8.85283
      47.7528      8.88012
      47.9779      8.90757
      48.2040      8.93520
      48.4311      8.96300
      48.6592      8.99098
      48.8884      9.01914
      49.1187      9.04748
      49.3501      9.07600
      49.5825      9.10471
      49.8159      9.13360
      50.0505      9.16267
      50.2861      9.19192
      50.5229      9.22135
      50.7607      9.25098
      50.9996      9.28080
      51.2396      9.31080
      51.4808      9.34099
      51.7230      9.37136
      51.9663      9.40191
      52.2108      9.43265
      52.4564      9.46358
      52.7032      9.49471
      52.9511      9.52602
      53.2001      9.55755
      53.4503      9.58926
      53.7016      9.62117
      53.9541      9.65327
      54.2077      9.68555
      54.4626      9.71804
      54.7186      9.75072
      54.9758      9.78359
      55.2341      9.81664
      55.4937      9.84989
      55.7545      9.88334
      56.0164      9.91700
      56.2796      9.95087
      56.5440      9.98493
      56.8096      10.0192
      57.0765      10.0537
      57.3445      10.0883
      57.6138      10.1232
      57.8844      10.1583
      58.1562      10.1936
      58.4292      10.2290
      58.7035      10.2647
      58.9791      10.3006
      59.2560      10.3366
      59.5341      10.3729
      59.8135      10.4094
      60.0942      10.4461
      60.3762      10.4830
      60.6595      10.5202
      60.9441      10.5575
      61.2300      10.5950
      61.5173      10.6328
      61.8058      10.6708
      62.0957      10.7090
      62.3870      10.7475
      62.6796      10.7861
      62.9735      10.8250
      63.2688      10.8641
      63.5654      10.9034
      63.8634      10.9430
      64.1628      10.9828
      64.4636      11.0228
      64.7658      11.0631
      65.0694      11.1036
      65.3743      11.1443
      65.6807      11.1852
      65.9885      11.2264
      66.2977      11.2678
      66.6083      11.3094
      66.9204      11.3512
      67.2339      11.3933
      67.5488      11.4357
      67.8652      11.4784
      68.1831      11.5213
      68.5024      11.5645
      68.8232      11.6079
      69.1455      11.6515
      69.4693      11.6953
      69.7946      11.7393
      70.1214      11.7836
      70.4496      11.8282
      70.7794      11.8730
      71.1108      11.9180
      71.4436      11.9633
      71.7780      12.0089
      72.1139      12.0548
      72.4514      12.1010
      72.7904      12.1474
      73.1310      12.1941
      73.4732      12.2409
      73.8169      12.2880
      74.1623      12.3353
      74.5092      12.3830
      74.8578      12.4310
      75.2079      12.4794
      75.5597      12.5281
      75.9130      12.5771
      76.2681      12.6265
      76.6247      12.6763
      76.9830      12.7266
      77.3430      12.7774
      77.7046      12.8289
      78.0679      12.8811
      78.4328      12.9340
      78.7995      12.9879
      79.1678      13.0428
      79.5378      13.0987
      79.9096      13.1559
      80.2830      13.2145
      80.6582      13.2747
      81.0352      13.3367
      81.4138      13.4006
      81.7942      13.4668
      82.1764      13.5356
      82.5603      13.6073
      82.9460      13.6824
      83.3335      13.7613
      83.7227      13.8447
      84.1138      13.9334
      84.5067      14.0282
      84.9014      14.1304
      85.2979      14.2416
      85.6962      14.3636
      86.0964      14.4993
      86.4984      14.6526
      86.9023      14.8292
      87.3080      15.0381
      87.7156      15.2947
      88.1251      15.6286
      88.5365      16.1099
      88.9498      16.9893
      89.3649         -NaN
      89.7820         -NaN
      90.2011         -NaN
      90.6221         -NaN
      91.0450         -NaN
      91.4698         -NaN
      91.8967         -NaN
      92.3254         -NaN
      92.7562         -NaN
      93.1890         -NaN
      93.6237         -NaN
      94.0605         -NaN
      94.4993         -NaN
      94.9401         -NaN
      95.3829         -NaN
      95.8278         -NaN
      96.2747         -NaN
      96.7237         -NaN
      97.1748         -NaN
      97.6279         -NaN
      98.0832         -NaN
      98.5406         -NaN

----------------------------------------------------------------------
SPECTRUM: CWW_Sbc_ext
FILTER:        SDSS i + CCD, [MT]  no atmosphere (Ref. F. Castander)
----------------------------------------------------------------------
      0.00000      0.00000
   0.00461578   0.00340487
   0.00925291   0.00680167
    0.0139114    0.0101906
    0.0185914    0.0135726
    0.0232930    0.0169466
    0.0280163    0.0203117
    0.0327615    0.0236651
    0.0375284    0.0270072
    0.0423174    0.0303383
    0.0471286    0.0336596
    0.0519619    0.0369734
    0.0568175    0.0402785
    0.0616956    0.0435796
    0.0665962    0.0468767
    0.0715193    0.0501713
    0.0764652    0.0534616
    0.0814340    0.0567461
    0.0864257    0.0600254
    0.0914403    0.0633010
    0.0964782    0.0665717
     0.101539    0.0698369
     0.106624    0.0730961
     0.111732    0.0763496
     0.116863    0.0796002
     0.122018    0.0828475
     0.127198    0.0860888
     0.132400    0.0893224
     0.137627    0.0925482
     0.142878    0.0957665
     0.148154    0.0989767
     0.153453     0.102173
     0.158777     0.105347
     0.164126     0.108489
     0.169499     0.111591
     0.174898     0.114641
     0.180321     0.117635
     0.185769     0.120559
     0.191242     0.123402
     0.196741     0.126152
     0.202264     0.128802
     0.207814     0.131346
     0.213389     0.133778
     0.218990     0.136094
     0.224616     0.138297
     0.230269     0.140392
     0.235947     0.142393
     0.241652     0.144324
     0.247383     0.146210
     0.253141     0.148082
     0.258925     0.149961
     0.264736     0.151872
     0.270574     0.153841
     0.276439     0.155902
     0.282331     0.158094
     0.288249     0.160474
     0.294196     0.163079
     0.300170     0.165909
     0.306171     0.168933
     0.312200     0.172107
     0.318257     0.175379
     0.324342     0.178709
     0.330454     0.182068
     0.336596     0.185427
     0.342765     0.188763
     0.348963     0.192054
     0.355189     0.195274
     0.361445     0.198401
     0.367729     0.201421
     0.374042     0.204327
     0.380384     0.207127
     0.386756     0.209845
     0.393157     0.212517
     0.399587     0.215176
     0.406048     0.217856
     0.412538     0.220534
     0.419057     0.223203
     0.425608     0.225840
     0.432188     0.228434
     0.438799     0.230987
     0.445440     0.233504
     0.452112     0.236005
     0.458814     0.238502
     0.465548     0.241041
     0.472312     0.243640
     0.479108     0.246300
     0.485936     0.249028
     0.492794     0.251834
     0.499685     0.254726
     0.506607     0.257724
     0.513561     0.260833
     0.520548     0.264059
     0.527566     0.267395
     0.534617     0.270822
     0.541700     0.274337
     0.548817     0.277981
     0.555966     0.281829
     0.563148     0.285950
     0.570363     0.290407
     0.577611     0.295214
     0.584893     0.300262
     0.592209     0.305354
     0.599558     0.310432
     0.606941     0.315569
     0.614359     0.320814
     0.621810     0.326150
     0.629296     0.331524
     0.636817     0.336894
     0.644372     0.342285
     0.651962     0.347774
     0.659587     0.353442
     0.667247     0.359343
     0.674943     0.365487
     0.682674     0.371881
     0.690441     0.378542
     0.698244     0.385465
     0.706082     0.392609
     0.713957     0.399952
     0.721869     0.407528
     0.729816     0.415448
     0.737801     0.423837
     0.745822     0.432783
     0.753881     0.442303
     0.761976     0.452371
     0.770109     0.462947
     0.778279     0.474016
     0.786488     0.485547
     0.794734     0.497488
     0.803018     0.509794
     0.811340     0.522434
     0.819701     0.535425
     0.828100     0.548762
     0.836538     0.562414
     0.845015     0.576339
     0.853532     0.590550
     0.862087     0.605110
     0.870682     0.620112
     0.879317     0.635631
     0.887991     0.651672
     0.896706     0.668162
     0.905461     0.684975
     0.914256     0.701955
     0.923092     0.718963
     0.931968     0.735876
     0.940886     0.752623
     0.949845     0.769200
     0.958845     0.785671
     0.967886     0.802171
     0.976970     0.818875
     0.986095     0.835940
     0.995262     0.853508
      1.00447     0.871648
      1.01372     0.890357
      1.02302     0.909573
      1.03236     0.929188
      1.04174     0.949079
      1.05116     0.969146
      1.06063     0.989341
      1.07014      1.00971
      1.07970      1.03040
      1.08930      1.05158
      1.09894      1.07331
      1.10863      1.09544
      1.11836      1.11769
      1.12814      1.13968
      1.13796      1.16118
      1.14783      1.18215
      1.15774      1.20274
      1.16770      1.22324
      1.17771      1.24383
      1.18776      1.26462
      1.19786      1.28552
      1.20800      1.30638
      1.21820      1.32703
      1.22844      1.34741
      1.23872      1.36753
      1.24905      1.38754
      1.25944      1.40761
      1.26986      1.42784
      1.28034      1.44820
      1.29087      1.46846
      1.30144      1.48837
      1.31206      1.50768
      1.32274      1.52625
      1.33346      1.54411
      1.34423      1.56143
      1.35505      1.57845
      1.36592      1.59542
      1.37684      1.61253
      1.38781      1.62986
      1.39883      1.64737
      1.40991      1.66489
      1.42103      1.68218
      1.43220      1.69908
      1.44343      1.71553
      1.45471      1.73156
      1.46604      1.74716
      1.47742      1.76235
      1.48886      1.77710
      1.50035      1.79143
      1.51189      1.80532
      1.52348      1.81876
      1.53513      1.83176
      1.54683      1.84432
      1.55859      1.85646
      1.57040      1.86818
      1.58226      1.87948
      1.59418      1.89040
      1.60615      1.90094
      1.61818      1.91111
      1.63027      1.92095
      1.64241      1.93044
      1.65461      1.93962
      1.66686      1.94850
      1.67917      1.95708
      1.69153      1.96540
      1.70396      1.97346
      1.71644      1.98128
      1.72898      1.98889
      1.74157      1.99628
      1.75423      2.00347
      1.76694      2.01049
      1.77971      2.01733
      1.79254      2.02400
      1.80543      2.03053
      1.81838      2.03691
      1.83139      2.04316
      1.84446      2.04929
      1.85759      2.05531
      1.87078      2.06122
      1.88403      2.06702
      1.89734      2.07271
      1.91072      2.07830
      1.92415      2.08379
      1.93765      2.08920
      1.95121      2.09452
      1.96483      2.09977
      1.97852      2.10495
      1.99226      2.11007
      2.00608      2.11512
      2.01995      2.12010
      2.03389      2.12503
      2.04789      2.12989
      2.06196      2.13471
      2.07610      2.13948
      2.09030      2.14421
      2.10456      2.14889
      2.11889      2.15353
      2.13329      2.15812
      2.14775      2.16266
      2.16228      2.16713
      2.17687      2.17155
      2.19154      2.17589
      2.20627      2.18017
      2.22107      2.18437
      2.23594      2.18849
      2.25087      2.19252
      2.26588      2.19648
      2.28095      2.20034
      2.29610      2.20412
      2.31131      2.20780
      2.32660      2.21138
      2.34195      2.21486
      2.35738      2.21823
      2.37287      2.22151
      2.38844      2.22468
      2.40408      2.22775
      2.41979      2.23072
      2.43558      2.23359
      2.45144      2.23638
      2.46737      2.23908
      2.48337      2.24171
      2.49945      2.24426
      2.51560      2.24674
      2.53183      2.24916
      2.54813      2.25153
      2.56451      2.25385
      2.58096      2.25613
      2.59749      2.25838
      2.61410      2.26060
      2.63078      2.26280
      2.64754      2.26500
      2.66438      2.26721
      2.68129      2.26944
      2.69828      2.27171
      2.71535      2.27401
      2.73250      2.27638
      2.74973      2.27880
      2.76704      2.28130
      2.78443      2.28388
      2.80189      2.28656
      2.81944      2.28937
      2.83707      2.29234
      2.85478      2.29550
      2.87258      2.29887
      2.89045      2.30242
      2.90841      2.30613
      2.92645      2.30993
      2.94457      2.31379
      2.96278      2.31769
      2.98107      2.32161
      2.99945      2.32553
      3.01791      2.32940
      3.03645      2.33313
      3.05509      2.33664
      3.07380      2.33986
      3.09261      2.34278
      3.11150      2.34546
      3.13048      2.34798
      3.14954      2.35041
      3.16869      2.35282
      3.18794      2.35522
      3.20727      2.35764
      3.22669      2.36007
      3.24620      2.36250
      3.26580      2.36488
      3.28549      2.36718
      3.30527      2.36943
      3.32514      2.37162
      3.34510      2.37385
      3.36516      2.37620
      3.38531      2.37876
      3.40555      2.38163
      3.42588      2.38484
      3.44631      2.38835
      3.46684      2.39202
      3.48745      2.39565
      3.50817      2.39901
      3.52898      2.40185
      3.54988      2.40397
      3.57088      2.40523
      3.59198      2.40561
      3.61318      2.40508
      3.63447      2.40374
      3.65586      2.40171
      3.67735      2.39909
      3.69894      2.39592
      3.72063      2.39220
      3.74242      2.38789
      3.76431      2.38303
      3.78630      2.37770
      3.80839      2.37217
      3.83059      2.36667
      3.85288      2.36145
      3.87529      2.35657
      3.89779      2.35195
      3.92039      2.34751
      3.94311      2.34311
      3.96592      2.33870
      3.98884      2.33421
      4.01187      2.32960
      4.03501      2.32479
      4.05825      2.31959
      4.08159      2.31378
      4.10505      2.30733
      4.12861      2.30038
      4.15229      2.29316
      4.17607      2.28591
      4.19996      2.27863
      4.22396      2.27133
      4.24808      2.26414
      4.27230      2.25724
      4.29663      2.25072
      4.32108      2.24451
      4.34564      2.23840
      4.37032      2.23217
      4.39511      2.22569
      4.42001      2.21898
      4.44503      2.21216
      4.47016      2.20543
      4.49541      2.19901
      4.52077      2.19313
      4.54626      2.18809
      4.57186      2.18425
      4.59758      2.18199
      4.62341      2.18155
      4.64937      2.18319
      4.67545      2.18692
      4.70164      2.19239
      4.72796      2.19890
      4.75440      2.20568
      4.78096      2.21224
      4.80764      2.21833
      4.83445      2.22391
      4.86138      2.22901
      4.88844      2.23350
      4.91562      2.23711
      4.94292      2.23964
      4.97035      2.24107
      4.99791      2.24145
      5.02560      2.24091
      5.05341      2.23960
      5.08135      2.23795
      5.10942      2.23655
      5.13762      2.23592
      5.16595      2.23601
      5.19441      2.23647
      5.22300      2.23696
      5.25173      2.23744
      5.28058      2.23811
      5.30957      2.23901
      5.33870      2.24002
      5.36796      2.24100
      5.39735      2.24205
      5.42688      2.24325
      5.45654      2.24444
      5.48634      2.24516
      5.51628      2.24498
      5.54636      2.24413
      5.57658      2.24328
      5.60693      2.24324
      5.63743      2.24449
      5.66807      2.24698
      5.69885      2.25033
      5.72977      2.25423
      5.76083      2.25864
      5.79204      2.26343
      5.82339      2.26839
      5.85488      2.27327
      5.88652      2.27771
      5.91831      2.28140
      5.95024      2.28424
      5.98232      2.28639
      6.01455      2.28852
      6.04693      2.29147
      6.07946      2.29589
      6.11213      2.30182
      6.14496      2.30887
      6.17794      2.31642
      6.21107      2.32383
      6.24436      2.33107
      6.27780      2.33897
      6.31139      2.34857
      6.34514      2.36027
      6.37904      2.37413
      6.41310      2.39023
      6.44732      2.40878
      6.48170      2.42993
      6.51623      2.45349
      6.55092      2.47897
      6.58578      2.50645
      6.62079      2.53604
      6.65597      2.56769
      6.69130      2.60118
      6.72681      2.63624
      6.76247      2.67257
      6.79830      2.70973
      6.83430      2.74750
      6.87046      2.78625
      6.90679      2.82645
      6.94328      2.86809
      6.97995      2.91108
      7.01678      2.95588
      7.05378      3.00308
      7.09096      3.05290
      7.12831      3.10442
      7.16582      3.15593
      7.20352      3.20563
      7.24138      3.25267
      7.27942      3.29782
      7.31764      3.34323
      7.35603      3.39157
      7.39460      3.44422
      7.43335      3.50061
      7.47227      3.55894
      7.51138      3.61714
      7.55067      3.67390
      7.59014      3.72929
      7.62979      3.78274
      7.66962      3.83299
      7.70964      3.88009
      7.74984      3.92814
      7.79023      3.98340
      7.83080      4.04898
      7.87156      4.12315
      7.91251      4.20210
      7.95365      4.28230
      7.99498      4.36092
      8.03649      4.43527
      8.07821      4.50280
      8.12011      4.56160
      8.16220      4.61029
      8.20450      4.64793
      8.24698      4.67446
      8.28966      4.69103
      8.33254      4.70017
      8.37562      4.70483
      8.41890      4.70720
      8.46237      4.70848
      8.50605      4.70932
      8.54993      4.71004
      8.59401      4.71085
      8.63829      4.71194
      8.68278      4.71346
      8.72747      4.71551
      8.77237      4.71809
      8.81748      4.72108
      8.86279      4.72424
      8.90832      4.72739
      8.95405      4.73042
      9.00000      4.73332
      9.04616      4.73604
      9.09253      4.73838
      9.13911      4.74009
      9.18591      4.74120
      9.23293      4.74213
      9.28016      4.74339
      9.32762      4.74518
      9.37529      4.74748
      9.42317      4.75014
      9.47128      4.75311
      9.51962      4.75631
      9.56818      4.75963
      9.61696      4.76290
      9.66596      4.76598
      9.71519      4.76875
      9.76465      4.77118
      9.81434      4.77337
      9.86426      4.77550
      9.91440      4.77782
      9.96478      4.78040
      10.0154      4.78313
      10.0662      4.78587
      10.1173      4.78865
      10.1686      4.79172
      10.2202      4.79545
      10.2720      4.80008
      10.3240      4.80562
      10.3763      4.81195
      10.4288      4.81885
      10.4815      4.82612
      10.5345      4.83349
      10.5878      4.84071
      10.6413      4.84762
      10.6950      4.85408
      10.7490      4.86007
      10.8032      4.86555
      10.8577      4.87046
      10.9124      4.87461
      10.9674      4.87780
      11.0226      4.88004
      11.0781      4.88171
      11.1339      4.88348
      11.1899      4.88593
      11.2462      4.88923
      11.3027      4.89321
      11.3595      4.89769
      11.4165      4.90274
      11.4738      4.90870
      11.5314      4.91588
      11.5893      4.92434
      11.6474      4.93381
      11.7057      4.94388
      11.7644      4.95408
      11.8233      4.96396
      11.8825      4.97317
      11.9420      4.98160
      12.0017      4.98937
      12.0617      4.99667
      12.1220      5.00357
      12.1826      5.01010
      12.2434      5.01624
      12.3045      5.02199
      12.3660      5.02737
      12.4277      5.03255
      12.4896      5.03788
      12.5519      5.04384
      12.6144      5.05085
      12.6773      5.05907
      12.7404      5.06829
      12.8038      5.07805
      12.8676      5.08796
      12.9316      5.09788
      12.9959      5.10788
      13.0605      5.11811
      13.1254      5.12873
      13.1906      5.13983
      13.2561      5.15148
      13.3219      5.16375
      13.3880      5.17666
      13.4544      5.19007
      13.5211      5.20383
      13.5881      5.21785
      13.6555      5.23212
      13.7231      5.24668
      13.7911      5.26156
      13.8594      5.27670
      13.9279      5.29189
      13.9968      5.30684
      14.0661      5.32124
      14.1356      5.33483
      14.2055      5.34739
      14.2757      5.35871
      14.3462      5.36868
      14.4170      5.37733
      14.4882      5.38493
      14.5597      5.39186
      14.6315      5.39855
      14.7036      5.40538
      14.7761      5.41271
      14.8489      5.42086
      14.9221      5.43007
      14.9956      5.44043
      15.0694      5.45184
      15.1436      5.46405
      15.2181      5.47690
      15.2930      5.49021
      15.3682      5.50382
      15.4437      5.51753
      15.5196      5.53105
      15.5959      5.54376
      15.6725      5.55474
      15.7494      5.56317
      15.8267      5.56916
      15.9044      5.57363
      15.9824      5.57757
      16.0608      5.58146
      16.1396      5.58530
      16.2187      5.58907
      16.2982      5.59288
      16.3780      5.59708
      16.4582      5.60209
      16.5388      5.60833
      16.6198      5.61603
      16.7011      5.62520
      16.7828      5.63564
      16.8649      5.64703
      16.9473      5.65905
      17.0302      5.67143
      17.1134      5.68396
      17.1970      5.69649
      17.2810      5.70890
      17.3654      5.72116
      17.4502      5.73328
      17.5353      5.74538
      17.6209      5.75767
      17.7068      5.77034
      17.7932      5.78354
      17.8799      5.79736
      17.9671      5.81185
      18.0546      5.82707
      18.1426      5.84311
      18.2309      5.86005
      18.3197      5.87787
      18.4089      5.89649
      18.4984      5.91581
      18.5884      5.93572
      18.6789      5.95616
      18.7697      5.97713
      18.8609      5.99872
      18.9526      6.02104
      19.0447      6.04414
      19.1372      6.06804
      19.2302      6.09274
      19.3236      6.11826
      19.4174      6.14458
      19.5116      6.17166
      19.6063      6.19941
      19.7014      6.22769
      19.7970      6.25638
      19.8930      6.28538
      19.9894      6.31451
      20.0863      6.34349
      20.1836      6.37203
      20.2814      6.39989
      20.3796      6.42693
      20.4783      6.45305
      20.5774      6.47812
      20.6770      6.50200
      20.7771      6.52455
      20.8776      6.54569
      20.9786      6.56544
      21.0800      6.58406
      21.1820      6.60209
      21.2844      6.62014
      21.3872      6.63870
      21.4905      6.65801
      21.5944      6.67818
      21.6986      6.69916
      21.8034      6.72080
      21.9087      6.74291
      22.0144      6.76532
      22.1206      6.78783
      22.2274      6.81009
      22.3346      6.83157
      22.4423      6.85166
      22.5505      6.86993
      22.6592      6.88617
      22.7684      6.90038
      22.8781      6.91276
      22.9883      6.92366
      23.0991      6.93342
      23.2103      6.94230
      23.3220      6.95052
      23.4343      6.95833
      23.5471      6.96606
      23.6604      6.97398
      23.7742      6.98220
      23.8886      6.99073
      24.0035      6.99947
      24.1189      7.00833
      24.2348      7.01725
      24.3513      7.02620
      24.4683      7.03520
      24.5859      7.04431
      24.7040      7.05356
      24.8226      7.06302
      24.9418      7.07271
      25.0615      7.08267
      25.1818      7.09293
      25.3027      7.10356
      25.4241      7.11461
      25.5461      7.12609
      25.6686      7.13802
      25.7917      7.15035
      25.9153      7.16305
      26.0396      7.17611
      26.1644      7.18950
      26.2898      7.20319
      26.4157      7.21717
      26.5423      7.23139
      26.6694      7.24576
      26.7971      7.26017
      26.9254      7.27453
      27.0543      7.28878
      27.1838      7.30293
      27.3139      7.31701
      27.4446      7.33114
      27.5759      7.34543
      27.7078      7.35995
      27.8403      7.37476
      27.9734      7.38989
      28.1072      7.40533
      28.2415      7.42105
      28.3765      7.43694
      28.5121      7.45283
      28.6483      7.46858
      28.7852      7.48408
      28.9226      7.49923
      29.0608      7.51391
      29.1995      7.52800
      29.3389      7.54147
      29.4789      7.55445
      29.6196      7.56725
      29.7610      7.58021
      29.9030      7.59352
      30.0456      7.60720
      30.1889      7.62113
      30.3329      7.63512
      30.4775      7.64905
      30.6228      7.66286
      30.7687      7.67651
      30.9154      7.68996
      31.0627      7.70315
      31.2107      7.71598
      31.3594      7.72825
      31.5087      7.73980
      31.6588      7.75062
      31.8095      7.76086
      31.9610      7.77078
      32.1131      7.78058
      32.2660      7.79031
      32.4195      7.79996
      32.5738      7.80954
      32.7287      7.81903
      32.8844      7.82847
      33.0408      7.83788
      33.1979      7.84728
      33.3558      7.85668
      33.5144      7.86611
      33.6737      7.87557
      33.8337      7.88509
      33.9945      7.89468
      34.1560      7.90434
      34.3183      7.91410
      34.4813      7.92394
      34.6451      7.93388
      34.8096      7.94391
      34.9749      7.95404
      35.1410      7.96426
      35.3078      7.97458
      35.4754      7.98500
      35.6438      7.99552
      35.8129      8.00613
      35.9828      8.01683
      36.1535      8.02764
      36.3250      8.03855
      36.4973      8.04956
      36.6704      8.06068
      36.8443      8.07192
      37.0189      8.08326
      37.1944      8.09472
      37.3707      8.10629
      37.5478      8.11797
      37.7258      8.12977
      37.9045      8.14169
      38.0841      8.15371
      38.2645      8.16586
      38.4457      8.17812
      38.6278      8.19049
      38.8107      8.20299
      38.9945      8.21561
      39.1791      8.22834
      39.3645      8.24119
      39.5509      8.25417
      39.7380      8.26727
      39.9261      8.28048
      40.1150      8.29382
      40.3048      8.30729
      40.4954      8.32087
      40.6869      8.33458
      40.8794      8.34841
      41.0727      8.36237
      41.2669      8.37646
      41.4620      8.39067
      41.6580      8.40501
      41.8549      8.41947
      42.0527      8.43407
      42.2514      8.44879
      42.4510      8.46364
      42.6516      8.47863
      42.8531      8.49374
      43.0555      8.50898
      43.2588      8.52436
      43.4631      8.53986
      43.6684      8.55550
      43.8745      8.57128
      44.0817      8.58719
      44.2898      8.60324
      44.4988      8.61942
      44.7088      8.63574
      44.9198      8.65220
      45.1318      8.66879
      45.3447      8.68552
      45.5586      8.70239
      45.7735      8.71940
      45.9894      8.73656
      46.2063      8.75385
      46.4242      8.77128
      46.6431      8.78886
      46.8630      8.80659
      47.0839      8.82445
      47.3059      8.84246
      47.5289      8.86062
      47.7528      8.87893
      47.9779      8.89738
      48.2040      8.91598
      48.4311      8.93473
      48.6592      8.95362
      48.8884      8.97266
      49.1187      8.99186
      49.3501      9.01120
      49.5825      9.03070
      49.8159      9.05035
      50.0505      9.07015
      50.2861      9.09011
      50.5229      9.11022
      50.7607      9.13049
      50.9996      9.15092
      51.2396      9.17150
      51.4808      9.19224
      51.7230      9.21314
      51.9663      9.23420
      52.2108      9.25541
      52.4564      9.27679
      52.7032      9.29833
      52.9511      9.32003
      53.2001      9.34190
      53.4503      9.36393
      53.7016      9.38612
      53.9541      9.40847
      54.2077      9.43098
      54.4626      9.45366
      54.7186      9.47651
      54.9758      9.49951
      55.2341      9.52268
      55.4937      9.54601
      55.7545      9.56952
      56.0164      9.59320
      56.2796      9.61705
      56.5440      9.64107
      56.8096      9.66527
      57.0765      9.68964
      57.3445      9.71418
      57.6138      9.73890
      57.8844      9.76379
      58.1562      9.78885
      58.4292      9.81408
      58.7035      9.83948
      58.9791      9.86505
      59.2560      9.89081
      59.5341      9.91675
      59.8135      9.94286
      60.0942      9.96916
      60.3762      9.99564
      60.6595      10.0223
      60.9441      10.0491
      61.2300      10.0762
      61.5173      10.1034
      61.8058      10.1308
      62.0957      10.1584
      62.3870      10.1862
      62.6796      10.2142
      62.9735      10.2423
      63.2688      10.2707
      63.5654      10.2993
      63.8634      10.3280
      64.1628      10.3569
      64.4636      10.3861
      64.7658      10.4154
      65.0694      10.4449
      65.3743      10.4747
      65.6807      10.5046
      65.9885      10.5347
      66.2977      10.5650
      66.6083      10.5955
      66.9204      10.6262
      67.2339      10.6572
      67.5488      10.6883
      67.8652      10.7197
      68.1831      10.7513
      68.5024      10.7830
      68.8232      10.8150
      69.1455      10.8472
      69.4693      10.8795
      69.7946      10.9121
      70.1214      10.9449
      70.4496      10.9779
      70.7794      11.0110
      71.1108      11.0445
      71.4436      11.0781
      71.7780      11.1119
      72.1139      11.1460
      72.4514      11.1803
      72.7904      11.2148
      73.1310      11.2495
      73.4732      11.2845
      73.8169      11.3196
      74.1623      11.3549
      74.5092      11.3905
      74.8578      11.4264
      75.2079      11.4625
      75.5597      11.4989
      75.9130      11.5356
      76.2681      11.5726
      76.6247      11.6099
      76.9830      11.6476
      77.3430      11.6858
      77.7046      11.7244
      78.0679      11.7635
      78.4328      11.8031
      78.7995      11.8434
      79.1678      11.8843
      79.5378      11.9259
      79.9096      11.9683
      80.2830      12.0116
      80.6582      12.0559
      81.0352      12.1012
      81.4138      12.1477
      81.7942      12.1954
      82.1764      12.2445
      82.5603      12.2951
      82.9460      12.3475
      83.3335      12.4018
      83.7227      12.4581
      84.1138      12.5169
      84.5067      12.5782
      84.9014      12.6426
      85.2979      12.7103
      85.6962      12.7819
      86.0964      12.8579
      86.4984      12.9390
      86.9023      13.0260
      87.3080      13.1200
      87.7156      13.2224
      88.1251      13.3348
      88.5365      13.4598
      88.9498      13.6005
      89.3649      13.7617
      89.7820      13.9507
      90.2011      14.1794
      90.6221      14.4692
      91.0450      14.8657
      91.4698      15.4967
      91.8967      17.1809
      92.3254         -NaN
      92.7562         -NaN
      93.1890         -NaN
      93.6237         -NaN
      94.0605         -NaN
      94.4993         -NaN
      94.9401         -NaN
      95.3829         -NaN
      95.8278         -NaN
      96.2747         -NaN
      96.7237         -NaN
      97.1748         -NaN
      97.6279         -NaN
      98.0832         -NaN
      98.5406         -NaN

----------------------------------------------------------------------
SPECTRUM: CWW_Scd_ext
FILTER:        SDSS i + CCD, [MT]  no atmosphere (Ref. F. Castander)
----------------------------------------------------------------------
      0.00000      0.00000
   0.00461578 -0.000486312
   0.00925291 -0.000955095
    0.0139114  -0.00140775
    0.0185914  -0.00184860
    0.0232930  -0.00227653
    0.0280163  -0.00269153
    0.0327615  -0.00309299
    0.0375284  -0.00348232
    0.0423174  -0.00386011
    0.0471286  -0.00422926
    0.0519619  -0.00459067
    0.0568175  -0.00494511
    0.0616956  -0.00529239
    0.0665962  -0.00562904
    0.0715193  -0.00595454
    0.0764652  -0.00626712
    0.0814340  -0.00656586
    0.0864257  -0.00685106
    0.0914403  -0.00712338
    0.0964782  -0.00738307
     0.101539  -0.00763076
     0.106624  -0.00786494
     0.111732  -0.00808477
     0.116863  -0.00829042
     0.122018  -0.00848118
     0.127198  -0.00865541
     0.132400  -0.00881472
     0.137627  -0.00896446
     0.142878  -0.00910763
     0.148154  -0.00924638
     0.153453  -0.00938084
     0.158777  -0.00950892
     0.164126  -0.00962755
     0.169499  -0.00973281
     0.174898  -0.00982220
     0.180321  -0.00989306
     0.185769  -0.00994132
     0.191242  -0.00995961
     0.196741  -0.00993917
     0.202264  -0.00986981
     0.207814  -0.00973907
     0.213389  -0.00954033
     0.218990  -0.00926792
     0.224616  -0.00891989
     0.230269  -0.00850336
     0.235947  -0.00803704
     0.241652  -0.00754929
     0.247383  -0.00707538
     0.253141  -0.00664457
     0.258925  -0.00626510
     0.264736  -0.00591283
     0.270574  -0.00553303
     0.276439  -0.00505856
     0.282331  -0.00443120
     0.288249  -0.00362795
     0.294196  -0.00265617
     0.300170  -0.00154993
     0.306171 -0.000342461
     0.312200  0.000944039
     0.318257   0.00229431
     0.324342   0.00368637
     0.330454   0.00510190
     0.336596   0.00651185
     0.342765   0.00787012
     0.348963   0.00909643
     0.355189    0.0100917
     0.361445    0.0107408
     0.367729    0.0109481
     0.374042    0.0106686
     0.380384   0.00995360
     0.386756   0.00893624
     0.393157   0.00780073
     0.399587   0.00671704
     0.406048   0.00578985
     0.412538   0.00506866
     0.419057   0.00457127
     0.425608   0.00428176
     0.432188   0.00420788
     0.438799   0.00437006
     0.445440   0.00473688
     0.452112   0.00528867
     0.458814   0.00597780
     0.465548   0.00675473
     0.472312   0.00757904
     0.479108   0.00842187
     0.485936   0.00928496
     0.492794    0.0101804
     0.499685    0.0111236
     0.506607    0.0121313
     0.513561    0.0132213
     0.520548    0.0144258
     0.527566    0.0157617
     0.534617    0.0172734
     0.541700    0.0190178
     0.548817    0.0210788
     0.555966    0.0234765
     0.563148    0.0261470
     0.570363    0.0289913
     0.577611    0.0319347
     0.584893    0.0349888
     0.592209    0.0382206
     0.599558    0.0416849
     0.606941    0.0453725
     0.614359    0.0491980
     0.621810    0.0530977
     0.629296    0.0570281
     0.636817    0.0609698
     0.644372    0.0649603
     0.651962    0.0690660
     0.659587    0.0733693
     0.667247    0.0779674
     0.674943    0.0829902
     0.682674    0.0886108
     0.690441    0.0949690
     0.698244     0.102008
     0.706082     0.109431
     0.713957     0.116867
     0.721869     0.124115
     0.729816     0.131274
     0.737801     0.138605
     0.745822     0.146307
     0.753881     0.154414
     0.761976     0.162828
     0.770109     0.171456
     0.778279     0.180288
     0.786488     0.189357
     0.794734     0.198715
     0.803018     0.208395
     0.811340     0.218378
     0.819701     0.228607
     0.828100     0.238974
     0.836538     0.249385
     0.845015     0.259801
     0.853532     0.270298
     0.862087     0.281031
     0.870682     0.292201
     0.879317     0.304005
     0.887991     0.316555
     0.896706     0.329826
     0.905461     0.343695
     0.914256     0.357971
     0.923092     0.372482
     0.931968     0.387088
     0.940886     0.401704
     0.949845     0.416262
     0.958845     0.430721
     0.967886     0.445093
     0.976970     0.459436
     0.986095     0.473845
     0.995262     0.488440
      1.00447     0.503303
      1.01372     0.518445
      1.02302     0.533825
      1.03236     0.549339
      1.04174     0.564854
      1.05116     0.580233
      1.06063     0.595414
      1.07014     0.610438
      1.07970     0.625456
      1.08930     0.640658
      1.09894     0.656112
      1.10863     0.671718
      1.11836     0.687239
      1.12814     0.702376
      1.13796     0.716913
      1.14783     0.730804
      1.15774     0.744166
      1.16770     0.757209
      1.17771     0.770116
      1.18776     0.782957
      1.19786     0.795691
      1.20800     0.808186
      1.21820     0.820314
      1.22844     0.832061
      1.23872     0.843568
      1.24905     0.855115
      1.25944     0.867036
      1.26986     0.879473
      1.28034     0.892196
      1.29087     0.904680
      1.30144     0.916370
      1.31206     0.926861
      1.32274     0.936064
      1.33346     0.944225
      1.34423     0.951759
      1.35505     0.959038
      1.36592     0.966317
      1.37684     0.973726
      1.38781     0.981311
      1.39883     0.989053
      1.40991     0.996894
      1.42103      1.00476
      1.43220      1.01262
      1.44343      1.02044
      1.45471      1.02824
      1.46604      1.03600
      1.47742      1.04372
      1.48886      1.05138
      1.50035      1.05898
      1.51189      1.06651
      1.52348      1.07396
      1.53513      1.08133
      1.54683      1.08861
      1.55859      1.09581
      1.57040      1.10291
      1.58226      1.10993
      1.59418      1.11685
      1.60615      1.12368
      1.61818      1.13042
      1.63027      1.13706
      1.64241      1.14360
      1.65461      1.15002
      1.66686      1.15632
      1.67917      1.16249
      1.69153      1.16850
      1.70396      1.17435
      1.71644      1.18003
      1.72898      1.18553
      1.74157      1.19084
      1.75423      1.19595
      1.76694      1.20087
      1.77971      1.20558
      1.79254      1.21007
      1.80543      1.21435
      1.81838      1.21840
      1.83139      1.22222
      1.84446      1.22582
      1.85759      1.22919
      1.87078      1.23233
      1.88403      1.23524
      1.89734      1.23792
      1.91072      1.24037
      1.92415      1.24260
      1.93765      1.24460
      1.95121      1.24639
      1.96483      1.24796
      1.97852      1.24932
      1.99226      1.25047
      2.00608      1.25142
      2.01995      1.25216
      2.03389      1.25270
      2.04789      1.25305
      2.06196      1.25322
      2.07610      1.25321
      2.09030      1.25304
      2.10456      1.25270
      2.11889      1.25219
      2.13329      1.25153
      2.14775      1.25070
      2.16228      1.24972
      2.17687      1.24859
      2.19154      1.24732
      2.20627      1.24590
      2.22107      1.24434
      2.23594      1.24264
      2.25087      1.24081
      2.26588      1.23884
      2.28095      1.23675
      2.29610      1.23454
      2.31131      1.23222
      2.32660      1.22980
      2.34195      1.22727
      2.35738      1.22464
      2.37287      1.22191
      2.38844      1.21909
      2.40408      1.21617
      2.41979      1.21317
      2.43558      1.21011
      2.45144      1.20698
      2.46737      1.20380
      2.48337      1.20057
      2.49945      1.19732
      2.51560      1.19404
      2.53183      1.19073
      2.54813      1.18742
      2.56451      1.18409
      2.58096      1.18077
      2.59749      1.17746
      2.61410      1.17416
      2.63078      1.17089
      2.64754      1.16766
      2.66438      1.16448
      2.68129      1.16136
      2.69828      1.15833
      2.71535      1.15539
      2.73250      1.15254
      2.74973      1.14981
      2.76704      1.14719
      2.78443      1.14471
      2.80189      1.14238
      2.81944      1.14024
      2.83707      1.13833
      2.85478      1.13670
      2.87258      1.13537
      2.89045      1.13433
      2.90841      1.13355
      2.92645      1.13298
      2.94457      1.13259
      2.96278      1.13235
      2.98107      1.13226
      2.99945      1.13228
      3.01791      1.13238
      3.03645      1.13245
      3.05509      1.13241
      3.07380      1.13219
      3.09261      1.13179
      3.11150      1.13125
      3.13048      1.13067
      3.14954      1.13014
      3.16869      1.12969
      3.18794      1.12937
      3.20727      1.12919
      3.22669      1.12913
      3.24620      1.12920
      3.26580      1.12933
      3.28549      1.12950
      3.30527      1.12972
      3.32514      1.13001
      3.34510      1.13044
      3.36516      1.13110
      3.38531      1.13208
      3.40555      1.13348
      3.42588      1.13533
      3.44631      1.13757
      3.46684      1.14007
      3.48745      1.14263
      3.50817      1.14500
      3.52898      1.14694
      3.54988      1.14825
      3.57088      1.14878
      3.59198      1.14852
      3.61318      1.14743
      3.63447      1.14561
      3.65586      1.14319
      3.67735      1.14025
      3.69894      1.13684
      3.72063      1.13294
      3.74242      1.12851
      3.76431      1.12355
      3.78630      1.11814
      3.80839      1.11254
      3.83059      1.10698
      3.85288      1.10170
      3.87529      1.09676
      3.89779      1.09209
      3.92039      1.08761
      3.94311      1.08317
      3.96592      1.07873
      3.98884      1.07419
      4.01187      1.06954
      4.03501      1.06468
      4.05825      1.05943
      4.08159      1.05357
      4.10505      1.04707
      4.12861      1.04007
      4.15229      1.03279
      4.17607      1.02548
      4.19996      1.01814
      4.22396      1.01078
      4.24808      1.00353
      4.27230     0.996573
      4.29663     0.989985
      4.32108     0.983704
      4.34564     0.977526
      4.37032     0.971237
      4.39511     0.964692
      4.42001     0.957918
      4.44503     0.951031
      4.47016     0.944232
      4.49541     0.937740
      4.52077     0.931785
      4.54626     0.926672
      4.57186     0.922773
      4.59758     0.920442
      4.62341     0.919941
      4.64937     0.921510
      4.67545     0.925183
      4.70164     0.930585
      4.72796     0.937038
      4.75440     0.943767
      4.78096     0.950270
      4.80764     0.956297
      4.83445     0.961823
      4.86138     0.966870
      4.88844     0.971313
      4.91562     0.974872
      4.94292     0.977351
      4.97035     0.978734
      4.99791     0.979069
      5.02560     0.978477
      5.05341     0.977121
      5.08135     0.975416
      5.10942     0.973965
      5.13762     0.973280
      5.16595     0.973322
      5.19441     0.973742
      5.22300     0.974183
      5.25173     0.974616
      5.28058     0.975237
      5.30957     0.976091
      5.33870     0.977049
      5.36796     0.977986
      5.39735     0.978990
      5.42688     0.980154
      5.45654     0.981302
      5.48634     0.981979
      5.51628     0.981766
      5.54636     0.980873
      5.57658     0.979984
      5.60693     0.979908
      5.63743     0.981120
      5.66807     0.983573
      5.69885     0.986894
      5.72977     0.990777
      5.76083     0.995167
      5.79204     0.999941
      5.82339      1.00489
      5.85488      1.00976
      5.88652      1.01419
      5.91831      1.01787
      5.95024      1.02071
      5.98232      1.02286
      6.01455      1.02500
      6.04693      1.02795
      6.07946      1.03237
      6.11213      1.03831
      6.14496      1.04536
      6.17794      1.05292
      6.21107      1.06032
      6.24436      1.06756
      6.27780      1.07545
      6.31139      1.08504
      6.34514      1.09674
      6.37904      1.11061
      6.41310      1.12672
      6.44732      1.14528
      6.48170      1.16645
      6.51623      1.19003
      6.55092      1.21554
      6.58578      1.24306
      6.62079      1.27269
      6.65597      1.30440
      6.69130      1.33795
      6.72681      1.37308
      6.76247      1.40948
      6.79830      1.44672
      6.83430      1.48458
      6.87046      1.52342
      6.90679      1.56372
      6.94328      1.60547
      6.97995      1.64858
      7.01678      1.69351
      7.05378      1.74085
      7.09096      1.79082
      7.12831      1.84252
      7.16582      1.89422
      7.20352      1.94411
      7.24138      1.99135
      7.27942      2.03670
      7.31764      2.08231
      7.35603      2.13088
      7.39460      2.18379
      7.43335      2.24047
      7.47227      2.29912
      7.51138      2.35765
      7.55067      2.41477
      7.59014      2.47053
      7.62979      2.52436
      7.66962      2.57497
      7.70964      2.62245
      7.74984      2.67089
      7.79023      2.72664
      7.83080      2.79283
      7.87156      2.86774
      7.91251      2.94753
      7.95365      3.02866
      7.99498      3.10826
      8.03649      3.18362
      8.07821      3.25214
      8.12011      3.31187
      8.16220      3.36139
      8.20450      3.39973
      8.24698      3.42679
      8.28966      3.44375
      8.33254      3.45315
      8.37562      3.45801
      8.41890      3.46053
      8.46237      3.46195
      8.50605      3.46293
      8.54993      3.46378
      8.59401      3.46473
      8.63829      3.46596
      8.68278      3.46762
      8.72747      3.46984
      8.77237      3.47259
      8.81748      3.47576
      8.86279      3.47911
      8.90832      3.48245
      8.95405      3.48566
      9.00000      3.48874
      9.04616      3.49164
      9.09253      3.49416
      9.13911      3.49603
      9.18591      3.49729
      9.23293      3.49836
      9.28016      3.49977
      9.32762      3.50173
      9.37529      3.50419
      9.42317      3.50704
      9.47128      3.51020
      9.51962      3.51360
      9.56818      3.51711
      9.61696      3.52059
      9.66596      3.52386
      9.71519      3.52682
      9.76465      3.52944
      9.81434      3.53180
      9.86426      3.53411
      9.91440      3.53660
      9.96478      3.53936
      10.0154      3.54228
      10.0662      3.54521
      10.1173      3.54818
      10.1686      3.55145
      10.2202      3.55539
      10.2720      3.56025
      10.3240      3.56606
      10.3763      3.57266
      10.4288      3.57986
      10.4815      3.58743
      10.5345      3.59510
      10.5878      3.60263
      10.6413      3.60985
      10.6950      3.61660
      10.7490      3.62287
      10.8032      3.62862
      10.8577      3.63379
      10.9124      3.63818
      10.9674      3.64158
      11.0226      3.64401
      11.0781      3.64585
      11.1339      3.64779
      11.1899      3.65043
      11.2462      3.65395
      11.3027      3.65815
      11.3595      3.66287
      11.4165      3.66819
      11.4738      3.67443
      11.5314      3.68192
      11.5893      3.69074
      11.6474      3.70061
      11.7057      3.71110
      11.7644      3.72171
      11.8233      3.73201
      11.8825      3.74161
      11.9420      3.75042
      12.0017      3.75855
      12.0617      3.76618
      12.1220      3.77343
      12.1826      3.78028
      12.2434      3.78673
      12.3045      3.79278
      12.3660      3.79845
      12.4277      3.80393
      12.4896      3.80955
      12.5519      3.81582
      12.6144      3.82319
      12.6773      3.83180
      12.7404      3.84146
      12.8038      3.85168
      12.8676      3.86206
      12.9316      3.87245
      12.9959      3.88293
      13.0605      3.89365
      13.1254      3.90478
      13.1906      3.91640
      13.2561      3.92861
      13.3219      3.94147
      13.3880      3.95499
      13.4544      3.96904
      13.5211      3.98346
      13.5881      3.99816
      13.6555      4.01312
      13.7231      4.02840
      13.7911      4.04402
      13.8594      4.05991
      13.9279      4.07587
      13.9968      4.09160
      14.0661      4.10675
      14.1356      4.12107
      14.2055      4.13432
      14.2757      4.14627
      14.3462      4.15681
      14.4170      4.16598
      14.4882      4.17403
      14.5597      4.18140
      14.6315      4.18850
      14.7036      4.19575
      14.7761      4.20352
      14.8489      4.21216
      14.9221      4.22191
      14.9956      4.23288
      15.0694      4.24494
      15.1436      4.25786
      15.2181      4.27145
      15.2930      4.28554
      15.3682      4.29994
      15.4437      4.31447
      15.5196      4.32880
      15.5959      4.34228
      15.6725      4.35392
      15.7494      4.36287
      15.8267      4.36922
      15.9044      4.37395
      15.9824      4.37813
      16.0608      4.38224
      16.1396      4.38630
      16.2187      4.39027
      16.2982      4.39430
      16.3780      4.39871
      16.4582      4.40400
      16.5388      4.41058
      16.6198      4.41872
      16.7011      4.42842
      16.7828      4.43946
      16.8649      4.45152
      16.9473      4.46425
      17.0302      4.47737
      17.1134      4.49065
      17.1970      4.50393
      17.2810      4.51709
      17.3654      4.53009
      17.4502      4.54294
      17.5353      4.55578
      17.6209      4.56881
      17.7068      4.58226
      17.7932      4.59628
      17.8799      4.61096
      17.9671      4.62637
      18.0546      4.64257
      18.1426      4.65966
      18.2309      4.67772
      18.3197      4.69674
      18.4089      4.71665
      18.4984      4.73732
      18.5884      4.75865
      18.6789      4.78056
      18.7697      4.80308
      18.8609      4.82629
      18.9526      4.85031
      19.0447      4.87522
      19.1372      4.90102
      19.2302      4.92774
      19.3236      4.95539
      19.4174      4.98395
      19.5116      5.01342
      19.6063      5.04365
      19.7014      5.07453
      19.7970      5.10593
      19.8930      5.13772
      19.9894      5.16973
      20.0863      5.20164
      20.1836      5.23312
      20.2814      5.26390
      20.3796      5.29383
      20.4783      5.32278
      20.5774      5.35060
      20.6770      5.37711
      20.7771      5.40216
      20.8776      5.42565
      20.9786      5.44757
      21.0800      5.46823
      21.1820      5.48823
      21.2844      5.50828
      21.3872      5.52892
      21.4905      5.55046
      21.5944      5.57300
      21.6986      5.59652
      21.8034      5.62083
      21.9087      5.64572
      22.0144      5.67100
      22.1206      5.69644
      22.2274      5.72163
      22.3346      5.74594
      22.4423      5.76864
      22.5505      5.78923
      22.6592      5.80742
      22.7684      5.82322
      22.8781      5.83684
      22.9883      5.84870
      23.0991      5.85919
      23.2103      5.86862
      23.3220      5.87724
      23.4343      5.88537
      23.5471      5.89337
      23.6604      5.90158
      23.7742      5.91013
      23.8886      5.91903
      24.0035      5.92816
      24.1189      5.93741
      24.2348      5.94672
      24.3513      5.95605
      24.4683      5.96542
      24.5859      5.97489
      24.7040      5.98453
      24.8226      5.99438
      24.9418      6.00450
      25.0615      6.01491
      25.1818      6.02566
      25.3027      6.03681
      25.4241      6.04845
      25.5461      6.06059
      25.6686      6.07323
      25.7917      6.08633
      25.9153      6.09986
      26.0396      6.11379
      26.1644      6.12809
      26.2898      6.14274
      26.4157      6.15772
      26.5423      6.17296
      26.6694      6.18837
      26.7971      6.20382
      26.9254      6.21918
      27.0543      6.23439
      27.1838      6.24944
      27.3139      6.26440
      27.4446      6.27940
      27.5759      6.29458
      27.7078      6.31001
      27.8403      6.32576
      27.9734      6.34188
      28.1072      6.35837
      28.2415      6.37517
      28.3765      6.39216
      28.5121      6.40914
      28.6483      6.42592
      28.7852      6.44238
      28.9226      6.45840
      29.0608      6.47382
      29.1995      6.48850
      29.3389      6.50240
      29.4789      6.51569
      29.6196      6.52873
      29.7610      6.54193
      29.9030      6.55554
      30.0456      6.56958
      30.1889      6.58388
      30.3329      6.59824
      30.4775      6.61251
      30.6228      6.62660
      30.7687      6.64046
      30.9154      6.65405
      31.0627      6.66731
      31.2107      6.68010
      31.3594      6.69218
      31.5087      6.70335
      31.6588      6.71360
      31.8095      6.72313
      31.9610      6.73224
      32.1131      6.74118
      32.2660      6.75001
      32.4195      6.75873
      32.5738      6.76733
      32.7287      6.77582
      32.8844      6.78421
      33.0408      6.79256
      33.1979      6.80087
      33.3558      6.80917
      33.5144      6.81747
      33.6737      6.82580
      33.8337      6.83418
      33.9945      6.84262
      34.1560      6.85114
      34.3183      6.85975
      34.4813      6.86844
      34.6451      6.87723
      34.8096      6.88611
      34.9749      6.89508
      35.1410      6.90416
      35.3078      6.91333
      35.4754      6.92260
      35.6438      6.93196
      35.8129      6.94142
      35.9828      6.95098
      36.1535      6.96064
      36.3250      6.97040
      36.4973      6.98027
      36.6704      6.99025
      36.8443      7.00034
      37.0189      7.01054
      37.1944      7.02086
      37.3707      7.03130
      37.5478      7.04185
      37.7258      7.05252
      37.9045      7.06331
      38.0841      7.07422
      38.2645      7.08525
      38.4457      7.09639
      38.6278      7.10766
      38.8107      7.11905
      38.9945      7.13055
      39.1791      7.14218
      39.3645      7.15394
      39.5509      7.16581
      39.7380      7.17781
      39.9261      7.18994
      40.1150      7.20219
      40.3048      7.21456
      40.4954      7.22707
      40.6869      7.23970
      40.8794      7.25245
      41.0727      7.26534
      41.2669      7.27836
      41.4620      7.29150
      41.6580      7.30478
      41.8549      7.31819
      42.0527      7.33173
      42.2514      7.34540
      42.4510      7.35921
      42.6516      7.37315
      42.8531      7.38722
      43.0555      7.40143
      43.2588      7.41578
      43.4631      7.43026
      43.6684      7.44488
      43.8745      7.45963
      44.0817      7.47452
      44.2898      7.48955
      44.4988      7.50472
      44.7088      7.52003
      44.9198      7.53548
      45.1318      7.55108
      45.3447      7.56681
      45.5586      7.58269
      45.7735      7.59871
      45.9894      7.61487
      46.2063      7.63118
      46.4242      7.64764
      46.6431      7.66424
      46.8630      7.68098
      47.0839      7.69788
      47.3059      7.71492
      47.5289      7.73211
      47.7528      7.74946
      47.9779      7.76696
      48.2040      7.78461
      48.4311      7.80241
      48.6592      7.82036
      48.8884      7.83846
      49.1187      7.85673
      49.3501      7.87514
      49.5825      7.89371
      49.8159      7.91243
      50.0505      7.93131
      50.2861      7.95035
      50.5229      7.96954
      50.7607      7.98890
      50.9996      8.00842
      51.2396      8.02809
      51.4808      8.04793
      51.7230      8.06793
      51.9663      8.08809
      52.2108      8.10842
      52.4564      8.12890
      52.7032      8.14956
      52.9511      8.17037
      53.2001      8.19136
      53.4503      8.21252
      53.7016      8.23385
      53.9541      8.25534
      54.2077      8.27700
      54.4626      8.29882
      54.7186      8.32082
      54.9758      8.34298
      55.2341      8.36531
      55.4937      8.38781
      55.7545      8.41048
      56.0164      8.43333
      56.2796      8.45635
      56.5440      8.47955
      56.8096      8.50293
      57.0765      8.52648
      57.3445      8.55021
      57.6138      8.57413
      57.8844      8.59821
      58.1562      8.62248
      58.4292      8.64691
      58.7035      8.67152
      58.9791      8.69631
      59.2560      8.72128
      59.5341      8.74643
      59.8135      8.77177
      60.0942      8.79729
      60.3762      8.82299
      60.6595      8.84888
      60.9441      8.87496
      61.2300      8.90123
      61.5173      8.92768
      61.8058      8.95434
      62.0957      8.98120
      62.3870      9.00825
      62.6796      9.03549
      62.9735      9.06293
      63.2688      9.09056
      63.5654      9.11838
      63.8634      9.14641
      64.1628      9.17463
      64.4636      9.20306
      64.7658      9.23169
      65.0694      9.26052
      65.3743      9.28954
      65.6807      9.31875
      65.9885      9.34816
      66.2977      9.37777
      66.6083      9.40759
      66.9204      9.43762
      67.2339      9.46785
      67.5488      9.49831
      67.8652      9.52898
      68.1831      9.55987
      68.5024      9.59097
      68.8232      9.62227
      69.1455      9.65377
      69.4693      9.68548
      69.7946      9.71739
      70.1214      9.74952
      70.4496      9.78186
      70.7794      9.81441
      71.1108      9.84717
      71.4436      9.88015
      71.7780      9.91337
      72.1139      9.94682
      72.4514      9.98049
      72.7904      10.0144
      73.1310      10.0485
      73.4732      10.0828
      73.8169      10.1173
      74.1623      10.1520
      74.5092      10.1870
      74.8578      10.2223
      75.2079      10.2578
      75.5597      10.2936
      75.9130      10.3297
      76.2681      10.3661
      76.6247      10.4029
      76.9830      10.4400
      77.3430      10.4775
      77.7046      10.5155
      78.0679      10.5540
      78.4328      10.5931
      78.7995      10.6327
      79.1678      10.6730
      79.5378      10.7141
      79.9096      10.7559
      80.2830      10.7985
      80.6582      10.8421
      81.0352      10.8867
      81.4138      10.9325
      81.7942      10.9795
      82.1764      11.0278
      82.5603      11.0777
      82.9460      11.1292
      83.3335      11.1826
      83.7227      11.2380
      84.1138      11.2957
      84.5067      11.3560
      84.9014      11.4192
      85.2979      11.4856
      85.6962      11.5557
      86.0964      11.6300
      86.4984      11.7093
      86.9023      11.7941
      87.3080      11.8856
      87.7156      11.9850
      88.1251      12.0939
      88.5365      12.2145
      88.9498      12.3497
      89.3649      12.5037
      89.7820      12.6829
      90.2011      12.8974
      90.6221      13.1647
      91.0450      13.5199
      91.4698      14.0514
      91.8967      15.1354
      92.3254         -NaN
      92.7562         -NaN
      93.1890         -NaN
      93.6237         -NaN
      94.0605         -NaN
      94.4993         -NaN
      94.9401         -NaN
      95.3829         -NaN
      95.8278         -NaN
      96.2747         -NaN
      96.7237         -NaN
      97.1748         -NaN
      97.6279         -NaN
      98.0832         -NaN
      98.5406         -NaN

----------------------------------------------------------------------
SPECTRUM: CWW_Im_ext
FILTER:        SDSS i + CCD, [MT]  no atmosphere (Ref. F. Castander)
----------------------------------------------------------------------
      0.00000      0.00000
   0.00461578  0.000592109
   0.00925291   0.00116424
    0.0139114   0.00171514
    0.0185914   0.00224652
    0.0232930   0.00275917
    0.0280163   0.00325248
    0.0327615   0.00372571
    0.0375284   0.00417836
    0.0423174   0.00460826
    0.0471286   0.00501378
    0.0519619   0.00539635
    0.0568175   0.00575702
    0.0616956   0.00609724
    0.0665962   0.00641407
    0.0715193   0.00670623
    0.0764652   0.00697401
    0.0814340   0.00721717
    0.0864257   0.00743688
    0.0914403   0.00763084
    0.0964782   0.00779893
     0.101539   0.00794143
     0.106624   0.00805771
     0.111732   0.00814584
     0.116863   0.00820377
     0.122018   0.00823088
     0.127198   0.00823255
     0.132400   0.00821508
     0.137627   0.00818181
     0.142878   0.00813363
     0.148154   0.00807171
     0.153453   0.00800067
     0.158777   0.00792769
     0.164126   0.00785843
     0.169499   0.00780060
     0.174898   0.00776359
     0.180321   0.00775588
     0.185769   0.00778326
     0.191242   0.00784661
     0.196741   0.00794760
     0.202264   0.00808469
     0.207814   0.00825490
     0.213389   0.00845295
     0.218990   0.00866881
     0.224616   0.00889028
     0.230269   0.00910477
     0.235947   0.00930151
     0.241652   0.00947641
     0.247383   0.00962921
     0.253141   0.00976351
     0.258925   0.00988960
     0.264736    0.0100118
     0.270574    0.0101220
     0.276439    0.0101957
     0.282331    0.0101984
     0.288249    0.0100876
     0.294196   0.00983919
     0.300170   0.00944985
     0.306171   0.00894548
     0.312200   0.00837281
     0.318257   0.00775177
     0.324342   0.00709039
     0.330454   0.00638100
     0.336596   0.00554341
     0.342765   0.00442433
     0.348963   0.00273709
     0.355189  8.16672e-05
     0.361445  -0.00402703
     0.367729  -0.00997907
     0.374042   -0.0179378
     0.380384   -0.0275869
     0.386756   -0.0382184
     0.393157   -0.0490096
     0.399587   -0.0592389
     0.406048   -0.0684728
     0.412538   -0.0766274
     0.419057   -0.0837218
     0.425608   -0.0898809
     0.432188   -0.0951456
     0.438799   -0.0995060
     0.445440    -0.103048
     0.452112    -0.105894
     0.458814    -0.108248
     0.465548    -0.110336
     0.472312    -0.112264
     0.479108    -0.114129
     0.485936    -0.115953
     0.492794    -0.117687
     0.499685    -0.119277
     0.506607    -0.120703
     0.513561    -0.121995
     0.520548    -0.123054
     0.527566    -0.124015
     0.534617    -0.124935
     0.541700    -0.125829
     0.548817    -0.126677
     0.555966    -0.127468
     0.563148    -0.128169
     0.570363    -0.128664
     0.577611    -0.128846
     0.584893    -0.128647
     0.592209    -0.128141
     0.599558    -0.127369
     0.606941    -0.126421
     0.614359    -0.125507
     0.621810    -0.124629
     0.629296    -0.123773
     0.636817    -0.122965
     0.644372    -0.122188
     0.651962    -0.121401
     0.659587    -0.120505
     0.667247    -0.119243
     0.674943    -0.117197
     0.682674    -0.113574
     0.690441    -0.107568
     0.698244   -0.0994570
     0.706082   -0.0907669
     0.713957   -0.0830376
     0.721869   -0.0769427
     0.729816   -0.0722652
     0.737801   -0.0682281
     0.745822   -0.0640850
     0.753881   -0.0597477
     0.761976   -0.0557403
     0.770109   -0.0524191
     0.778279   -0.0496103
     0.786488   -0.0469897
     0.794734   -0.0443476
     0.803018   -0.0415802
     0.811340   -0.0387229
     0.819701   -0.0359451
     0.828100   -0.0336172
     0.836538   -0.0320710
     0.845015   -0.0313671
     0.853532   -0.0311869
     0.862087   -0.0309670
     0.870682   -0.0300944
     0.879317   -0.0280440
     0.887991   -0.0245199
     0.896706   -0.0195274
     0.905461   -0.0132303
     0.914256  -0.00590873
     0.923092   0.00217238
     0.931968    0.0108188
     0.940886    0.0199041
     0.949845    0.0293022
     0.958845    0.0388206
     0.967886    0.0482199
     0.976970    0.0573571
     0.986095    0.0663195
     0.995262    0.0753614
      1.00447    0.0846739
      1.01372    0.0942749
      1.02302     0.104174
      1.03236     0.114320
      1.04174     0.124589
      1.05116     0.134820
      1.06063     0.144940
      1.07014     0.154948
      1.07970     0.164929
      1.08930     0.174970
      1.09894     0.185126
      1.10863     0.195399
      1.11836     0.205665
      1.12814     0.215720
      1.13796     0.225387
      1.14783     0.234618
      1.15774     0.243504
      1.16770     0.252179
      1.17771     0.260797
      1.18776     0.269488
      1.19786     0.278281
      1.20800     0.287003
      1.21820     0.295343
      1.22844     0.303141
      1.23872     0.310604
      1.24905     0.318449
      1.25944     0.327781
      1.26986     0.339135
      1.28034     0.351790
      1.29087     0.364091
      1.30144     0.374548
      1.31206     0.382401
      1.32274     0.387676
      1.33346     0.390977
      1.34423     0.393083
      1.35505     0.394582
      1.36592     0.395779
      1.37684     0.396814
      1.38781     0.397789
      1.39883     0.398783
      1.40991     0.399835
      1.42103     0.400944
      1.43220     0.402078
      1.44343     0.403160
      1.45471     0.404121
      1.46604     0.404923
      1.47742     0.405558
      1.48886     0.406031
      1.50035     0.406356
      1.51189     0.406542
      1.52348     0.406593
      1.53513     0.406507
      1.54683     0.406281
      1.55859     0.405913
      1.57040     0.405406
      1.58226     0.404760
      1.59418     0.403979
      1.60615     0.403070
      1.61818     0.402037
      1.63027     0.400888
      1.64241     0.399626
      1.65461     0.398251
      1.66686     0.396766
      1.67917     0.395172
      1.69153     0.393473
      1.70396     0.391673
      1.71644     0.389778
      1.72898     0.387791
      1.74157     0.385718
      1.75423     0.383562
      1.76694     0.381325
      1.77971     0.379011
      1.79254     0.376622
      1.80543     0.374162
      1.81838     0.371633
      1.83139     0.369040
      1.84446     0.366386
      1.85759     0.363676
      1.87078     0.360915
      1.88403     0.358106
      1.89734     0.355250
      1.91072     0.352350
      1.92415     0.349407
      1.93765     0.346425
      1.95121     0.343409
      1.96483     0.340363
      1.97852     0.337289
      1.99226     0.334189
      2.00608     0.331067
      2.01995     0.327921
      2.03389     0.324756
      2.04789     0.321573
      2.06196     0.318376
      2.07610     0.315167
      2.09030     0.311947
      2.10456     0.308718
      2.11889     0.305479
      2.13329     0.302232
      2.14775     0.298978
      2.16228     0.295720
      2.17687     0.292459
      2.19154     0.289198
      2.20627     0.285936
      2.22107     0.282676
      2.23594     0.279415
      2.25087     0.276157
      2.26588     0.272899
      2.28095     0.269646
      2.29610     0.266397
      2.31131     0.263154
      2.32660     0.259920
      2.34195     0.256693
      2.35738     0.253474
      2.37287     0.250265
      2.38844     0.247064
      2.40408     0.243874
      2.41979     0.240696
      2.43558     0.237532
      2.45144     0.234386
      2.46737     0.231260
      2.48337     0.228157
      2.49945     0.225080
      2.51560     0.222034
      2.53183     0.219019
      2.54813     0.216037
      2.56451     0.213090
      2.58096     0.210178
      2.59749     0.207303
      2.61410     0.204467
      2.63078     0.201673
      2.64754     0.198926
      2.66438     0.196231
      2.68129     0.193591
      2.69828     0.191011
      2.71535     0.188493
      2.73250     0.186038
      2.74973     0.183650
      2.76704     0.181327
      2.78443     0.179072
      2.80189     0.176886
      2.81944     0.174770
      2.83707     0.172728
      2.85478     0.170765
      2.87258     0.168885
      2.89045     0.167094
      2.90841     0.165395
      2.92645     0.163791
      2.94457     0.162284
      2.96278     0.160876
      2.98107     0.159566
      2.99945     0.158355
      3.01791     0.157240
      3.03645     0.156222
      3.05509     0.155300
      3.07380     0.154474
      3.09261     0.153744
      3.11150     0.153110
      3.13048     0.152573
      3.14954     0.152130
      3.16869     0.151784
      3.18794     0.151533
      3.20727     0.151375
      3.22669     0.151309
      3.24620     0.151332
      3.26580     0.151440
      3.28549     0.151628
      3.30527     0.151895
      3.32514     0.152238
      3.34510     0.152656
      3.36516     0.153149
      3.38531     0.153718
      3.40555     0.154361
      3.42588     0.155077
      3.44631     0.155866
      3.46684     0.156725
      3.48745     0.157647
      3.50817     0.158627
      3.52898     0.159659
      3.54988     0.160739
      3.57088     0.161861
      3.59198     0.163020
      3.61318     0.164211
      3.63447     0.165422
      3.65586     0.166634
      3.67735     0.167811
      3.69894     0.168898
      3.72063     0.169832
      3.74242     0.170545
      3.76431     0.171010
      3.78630     0.171250
      3.80839     0.171360
      3.83059     0.171457
      3.85288     0.171682
      3.87529     0.172135
      3.89779     0.172872
      3.92039     0.173835
      3.94311     0.174857
      3.96592     0.175683
      3.98884     0.176047
      4.01187     0.175764
      4.03501     0.174765
      4.05825     0.173025
      4.08159     0.170576
      4.10505     0.167496
      4.12861     0.163889
      4.15229     0.159900
      4.17607     0.155648
      4.19996     0.151194
      4.22396     0.146627
      4.24808     0.142043
      4.27230     0.137540
      4.29663     0.133153
      4.32108     0.128833
      4.34564     0.124462
      4.37032     0.119924
      4.39511     0.115184
      4.42001     0.110337
      4.44503     0.105509
      4.47016     0.100821
      4.49541    0.0963240
      4.52077    0.0920904
      4.54626    0.0882451
      4.57186    0.0849980
      4.59758    0.0826792
      4.62341    0.0816375
      4.64937    0.0821405
      4.67545    0.0842190
      4.70164    0.0876029
      4.72796    0.0917879
      4.75440    0.0961544
      4.78096     0.100265
      4.80764     0.103888
      4.83445     0.107015
      4.86138     0.109706
      4.88844     0.111876
      4.91562     0.113272
      4.94292     0.113669
      4.97035     0.113006
      4.99791     0.111304
      5.02560     0.108659
      5.05341     0.105216
      5.08135     0.101404
      5.10942    0.0978696
      5.13762    0.0951627
      5.16595    0.0932606
      5.19441    0.0917989
      5.22300    0.0903972
      5.25173    0.0889925
      5.28058    0.0877407
      5.30957    0.0866772
      5.33870    0.0857124
      5.36796    0.0847586
      5.39735    0.0839051
      5.42688    0.0832309
      5.45654    0.0825814
      5.48634    0.0815419
      5.51628    0.0797055
      5.54636    0.0772283
      5.57658    0.0747399
      5.60693    0.0730446
      5.63743    0.0726665
      5.66807    0.0736467
      5.69885    0.0756752
      5.72977    0.0784390
      5.76083    0.0818059
      5.79204    0.0855860
      5.82339    0.0895744
      5.85488    0.0935753
      5.88652    0.0972773
      5.91831     0.100397
      5.95024     0.102830
      5.98232     0.104672
      6.01455     0.106545
      6.04693     0.109249
      6.07946     0.113405
      6.11213     0.119028
      6.14496     0.125676
      6.17794     0.132685
      6.21107     0.139407
      6.24436     0.145852
      6.27780     0.152907
      6.31139     0.161647
      6.34514     0.172511
      6.37904     0.185588
      6.41310     0.200951
      6.44732     0.218808
      6.48170     0.239296
      6.51623     0.262213
      6.55092     0.287086
      6.58578     0.313998
      6.62079     0.343058
      6.65597     0.374236
      6.69130     0.407304
      6.72681     0.442018
      6.76247     0.478083
      6.79830     0.515046
      6.83430     0.552675
      6.87046     0.591309
      6.90679     0.631390
      6.94328     0.672921
      6.97995     0.715815
      7.01678     0.760521
      7.05378     0.807636
      7.09096     0.857403
      7.12831     0.908916
      7.16582     0.960487
      7.20352      1.01031
      7.24138      1.05756
      7.27942      1.10295
      7.31764      1.14863
      7.35603      1.19724
      7.39460      1.25016
      7.43335      1.30682
      7.47227      1.36540
      7.51138      1.42385
      7.55067      1.48089
      7.59014      1.53658
      7.62979      1.59036
      7.66962      1.64096
      7.70964      1.68848
      7.74984      1.73702
      7.79023      1.79294
      7.83080      1.85936
      7.87156      1.93458
      7.91251      2.01475
      7.95365      2.09633
      7.99498      2.17644
      8.03649      2.25235
      8.07821      2.32145
      8.12011      2.38173
      8.16220      2.43175
      8.20450      2.47050
      8.24698      2.49789
      8.28966      2.51507
      8.33254      2.52463
      8.37562      2.52960
      8.41890      2.53222
      8.46237      2.53374
      8.50605      2.53480
      8.54993      2.53574
      8.59401      2.53677
      8.63829      2.53809
      8.68278      2.53986
      8.72747      2.54217
      8.77237      2.54504
      8.81748      2.54832
      8.86279      2.55179
      8.90832      2.55523
      8.95405      2.55856
      9.00000      2.56176
      9.04616      2.56478
      9.09253      2.56740
      9.13911      2.56937
      9.18591      2.57072
      9.23293      2.57188
      9.28016      2.57337
      9.32762      2.57543
      9.37529      2.57800
      9.42317      2.58096
      9.47128      2.58423
      9.51962      2.58775
      9.56818      2.59138
      9.61696      2.59498
      9.66596      2.59838
      9.71519      2.60146
      9.76465      2.60419
      9.81434      2.60667
      9.86426      2.60909
      9.91440      2.61170
      9.96478      2.61458
      10.0154      2.61762
      10.0662      2.62066
      10.1173      2.62375
      10.1686      2.62713
      10.2202      2.63121
      10.2720      2.63621
      10.3240      2.64217
      10.3763      2.64894
      10.4288      2.65632
      10.4815      2.66408
      10.5345      2.67195
      10.5878      2.67968
      10.6413      2.68708
      10.6950      2.69402
      10.7490      2.70047
      10.8032      2.70640
      10.8577      2.71173
      10.9124      2.71627
      10.9674      2.71980
      11.0226      2.72235
      11.0781      2.72430
      11.1339      2.72635
      11.1899      2.72911
      11.2462      2.73276
      11.3027      2.73712
      11.3595      2.74199
      11.4165      2.74747
      11.4738      2.75389
      11.5314      2.76160
      11.5893      2.77065
      11.6474      2.78077
      11.7057      2.79152
      11.7644      2.80241
      11.8233      2.81297
      11.8825      2.82283
      11.9420      2.83188
      12.0017      2.84024
      12.0617      2.84810
      12.1220      2.85557
      12.1826      2.86264
      12.2434      2.86929
      12.3045      2.87554
      12.3660      2.88141
      12.4277      2.88707
      12.4896      2.89289
      12.5519      2.89938
      12.6144      2.90699
      12.6773      2.91588
      12.7404      2.92583
      12.8038      2.93636
      12.8676      2.94706
      12.9316      2.95778
      12.9959      2.96857
      13.0605      2.97962
      13.1254      2.99108
      13.1906      3.00306
      13.2561      3.01563
      13.3219      3.02887
      13.3880      3.04280
      13.4544      3.05727
      13.5211      3.07213
      13.5881      3.08728
      13.6555      3.10271
      13.7231      3.11846
      13.7911      3.13458
      13.8594      3.15098
      13.9279      3.16746
      13.9968      3.18371
      14.0661      3.19937
      14.1356      3.21418
      14.2055      3.22789
      14.2757      3.24028
      14.3462      3.25120
      14.4170      3.26071
      14.4882      3.26908
      14.5597      3.27674
      14.6315      3.28412
      14.7036      3.29166
      14.7761      3.29973
      14.8489      3.30870
      14.9221      3.31882
      14.9956      3.33019
      15.0694      3.34271
      15.1436      3.35610
      15.2181      3.37021
      15.2930      3.38482
      15.3682      3.39977
      15.4437      3.41485
      15.5196      3.42973
      15.5959      3.44373
      15.6725      3.45582
      15.7494      3.46513
      15.8267      3.47173
      15.9044      3.47665
      15.9824      3.48100
      16.0608      3.48527
      16.1396      3.48949
      16.2187      3.49361
      16.2982      3.49779
      16.3780      3.50238
      16.4582      3.50786
      16.5388      3.51470
      16.6198      3.52315
      16.7011      3.53322
      16.7828      3.54469
      16.8649      3.55721
      16.9473      3.57045
      17.0302      3.58409
      17.1134      3.59790
      17.1970      3.61171
      17.2810      3.62541
      17.3654      3.63894
      17.4502      3.65231
      17.5353      3.66567
      17.6209      3.67924
      17.7068      3.69325
      17.7932      3.70786
      17.8799      3.72318
      17.9671      3.73926
      18.0546      3.75617
      18.1426      3.77403
      18.2309      3.79290
      18.3197      3.81280
      18.4089      3.83365
      18.4984      3.85530
      18.5884      3.87767
      18.6789      3.90067
      18.7697      3.92432
      18.8609      3.94872
      18.9526      3.97400
      19.0447      4.00024
      19.1372      4.02747
      19.2302      4.05568
      19.3236      4.08493
      19.4174      4.11518
      19.5116      4.14643
      19.6063      4.17855
      19.7014      4.21140
      19.7970      4.24486
      19.8930      4.27880
      19.9894      4.31302
      20.0863      4.34720
      20.1836      4.38097
      20.2814      4.41405
      20.3796      4.44626
      20.4783      4.47744
      20.5774      4.50745
      20.6770      4.53607
      20.7771      4.56314
      20.8776      4.58851
      20.9786      4.61220
      21.0800      4.63452
      21.1820      4.65613
      21.2844      4.67780
      21.3872      4.70016
      21.4905      4.72352
      21.5944      4.74803
      21.6986      4.77365
      21.8034      4.80019
      21.9087      4.82741
      22.0144      4.85510
      22.1206      4.88302
      22.2274      4.91070
      22.3346      4.93742
      22.4423      4.96238
      22.5505      4.98498
      22.6592      5.00489
      22.7684      5.02208
      22.8781      5.03682
      22.9883      5.04955
      23.0991      5.06072
      23.2103      5.07067
      23.3220      5.07969
      23.4343      5.08814
      23.5471      5.09643
      23.6604      5.10493
      23.7742      5.11383
      23.8886      5.12309
      24.0035      5.13261
      24.1189      5.14226
      24.2348      5.15195
      24.3513      5.16165
      24.4683      5.17140
      24.5859      5.18124
      24.7040      5.19126
      24.8226      5.20151
      24.9418      5.21204
      25.0615      5.22290
      25.1818      5.23414
      25.3027      5.24583
      25.4241      5.25805
      25.5461      5.27084
      25.6686      5.28419
      25.7917      5.29805
      25.9153      5.31240
      26.0396      5.32719
      26.1644      5.34240
      26.2898      5.35801
      26.4157      5.37398
      26.5423      5.39025
      26.6694      5.40670
      26.7971      5.42317
      26.9254      5.43954
      27.0543      5.45571
      27.1838      5.47170
      27.3139      5.48756
      27.4446      5.50345
      27.5759      5.51952
      27.7078      5.53589
      27.8403      5.55261
      27.9734      5.56975
      28.1072      5.58729
      28.2415      5.60520
      28.3765      5.62331
      28.5121      5.64139
      28.6483      5.65924
      28.7852      5.67670
      28.9226      5.69363
      29.0608      5.70985
      29.1995      5.72519
      29.3389      5.73960
      29.4789      5.75327
      29.6196      5.76663
      29.7610      5.78016
      29.9030      5.79415
      30.0456      5.80863
      30.1889      5.82340
      30.3329      5.83822
      30.4775      5.85291
      30.6228      5.86737
      30.7687      5.88155
      30.9154      5.89540
      31.0627      5.90883
      31.2107      5.92168
      31.3594      5.93369
      31.5087      5.94462
      31.6588      5.95444
      31.8095      5.96338
      31.9610      5.97183
      32.1131      5.98005
      32.2660      5.98813
      32.4195      5.99605
      32.5738      6.00382
      32.7287      6.01144
      32.8844      6.01893
      33.0408      6.02635
      33.1979      6.03371
      33.3558      6.04105
      33.5144      6.04839
      33.6737      6.05573
      33.8337      6.06312
      33.9945      6.07058
      34.1560      6.07811
      34.3183      6.08573
      34.4813      6.09343
      34.6451      6.10123
      34.8096      6.10913
      34.9749      6.11712
      35.1410      6.12521
      35.3078      6.13340
      35.4754      6.14169
      35.6438      6.15008
      35.8129      6.15856
      35.9828      6.16713
      36.1535      6.17581
      36.3250      6.18460
      36.4973      6.19349
      36.6704      6.20249
      36.8443      6.21161
      37.0189      6.22085
      37.1944      6.23020
      37.3707      6.23968
      37.5478      6.24928
      37.7258      6.25900
      37.9045      6.26884
      38.0841      6.27880
      38.2645      6.28889
      38.4457      6.29910
      38.6278      6.30943
      38.8107      6.31988
      38.9945      6.33045
      39.1791      6.34115
      39.3645      6.35198
      39.5509      6.36293
      39.7380      6.37401
      39.9261      6.38522
      40.1150      6.39656
      40.3048      6.40803
      40.4954      6.41963
      40.6869      6.43137
      40.8794      6.44323
      41.0727      6.45523
      41.2669      6.46736
      41.4620      6.47963
      41.6580      6.49203
      41.8549      6.50456
      42.0527      6.51723
      42.2514      6.53003
      42.4510      6.54297
      42.6516      6.55605
      42.8531      6.56926
      43.0555      6.58261
      43.2588      6.59610
      43.4631      6.60973
      43.6684      6.62350
      43.8745      6.63741
      44.0817      6.65147
      44.2898      6.66566
      44.4988      6.68000
      44.7088      6.69448
      44.9198      6.70911
      45.1318      6.72388
      45.3447      6.73880
      45.5586      6.75387
      45.7735      6.76909
      45.9894      6.78445
      46.2063      6.79997
      46.4242      6.81563
      46.6431      6.83144
      46.8630      6.84739
      47.0839      6.86350
      47.3059      6.87975
      47.5289      6.89617
      47.7528      6.91273
      47.9779      6.92946
      48.2040      6.94634
      48.4311      6.96338
      48.6592      6.98057
      48.8884      6.99792
      49.1187      7.01543
      49.3501      7.03310
      49.5825      7.05093
      49.8159      7.06891
      50.0505      7.08706
      50.2861      7.10537
      50.5229      7.12384
      50.7607      7.14248
      50.9996      7.16127
      51.2396      7.18024
      51.4808      7.19937
      51.7230      7.21866
      51.9663      7.23812
      52.2108      7.25774
      52.4564      7.27753
      52.7032      7.29749
      52.9511      7.31762
      53.2001      7.33793
      53.4503      7.35840
      53.7016      7.37905
      53.9541      7.39987
      54.2077      7.42085
      54.4626      7.44201
      54.7186      7.46335
      54.9758      7.48485
      55.2341      7.50652
      55.4937      7.52836
      55.7545      7.55038
      56.0164      7.57259
      56.2796      7.59497
      56.5440      7.61753
      56.8096      7.64027
      57.0765      7.66320
      57.3445      7.68630
      57.6138      7.70959
      57.8844      7.73306
      58.1562      7.75671
      58.4292      7.78053
      58.7035      7.80453
      58.9791      7.82872
      59.2560      7.85309
      59.5341      7.87765
      59.8135      7.90239
      60.0942      7.92732
      60.3762      7.95244
      60.6595      7.97775
      60.9441      8.00324
      61.2300      8.02893
      61.5173      8.05481
      61.8058      8.08089
      62.0957      8.10717
      62.3870      8.13365
      62.6796      8.16033
      62.9735      8.18720
      63.2688      8.21427
      63.5654      8.24154
      63.8634      8.26902
      64.1628      8.29669
      64.4636      8.32458
      64.7658      8.35266
      65.0694      8.38095
      65.3743      8.40943
      65.6807      8.43812
      65.9885      8.46700
      66.2977      8.49610
      66.6083      8.52540
      66.9204      8.55491
      67.2339      8.58463
      67.5488      8.61458
      67.8652      8.64474
      68.1831      8.67513
      68.5024      8.70572
      68.8232      8.73652
      69.1455      8.76752
      69.4693      8.79873
      69.7946      8.83015
      70.1214      8.86179
      70.4496      8.89365
      70.7794      8.92571
      71.1108      8.95800
      71.4436      8.99050
      71.7780      9.02324
      72.1139      9.05621
      72.4514      9.08941
      72.7904      9.12283
      73.1310      9.15645
      73.4732      9.19027
      73.8169      9.22430
      74.1623      9.25858
      74.5092      9.29311
      74.8578      9.32791
      75.2079      9.36298
      75.5597      9.39834
      75.9130      9.43399
      76.2681      9.46994
      76.6247      9.50624
      76.9830      9.54292
      77.3430      9.58001
      77.7046      9.61757
      78.0679      9.65562
      78.4328      9.69422
      78.7995      9.73341
      79.1678      9.77326
      79.5378      9.81380
      79.9096      9.85511
      80.2830      9.89727
      80.6582      9.94034
      81.0352      9.98443
      81.4138      10.0296
      81.7942      10.0760
      82.1764      10.1238
      82.5603      10.1730
      82.9460      10.2238
      83.3335      10.2765
      83.7227      10.3312
      84.1138      10.3880
      84.5067      10.4474
      84.9014      10.5096
      85.2979      10.5750
      85.6962      10.6439
      86.0964      10.7168
      86.4984      10.7945
      86.9023      10.8776
      87.3080      10.9671
      87.7156      11.0641
      88.1251      11.1701
      88.5365      11.2872
      88.9498      11.4180
      89.3649      11.5662
      89.7820      11.7377
      90.2011      11.9412
      90.6221      12.1916
      91.0450      12.5175
      91.4698      12.9855
      91.8967      13.8257
      92.3254         -NaN
      92.7562         -NaN
      93.1890         -NaN
      93.6237         -NaN
      94.0605         -NaN
      94.4993         -NaN
      94.9401         -NaN
      95.3829         -NaN
      95.8278         -NaN
      96.2747         -NaN
      96.7237         -NaN
      97.1748         -NaN
      97.6279         -NaN
      98.0832         -NaN
      98.5406         -NaN

