----------------------------------------------------------------------
SPECTRUM: CWW_E_ext
FILTER:        SDSS g + CCD, [MT]  no atmosphere (Ref. F. Castander)
----------------------------------------------------------------------
      0.00000      0.00000
   0.00461578    0.0137670
   0.00925291    0.0279135
    0.0139114    0.0425531
    0.0185914    0.0577040
    0.0232930    0.0733808
    0.0280163    0.0895384
    0.0327615     0.106047
    0.0375284     0.122699
    0.0423174     0.139363
    0.0471286     0.155837
    0.0519619     0.172015
    0.0568175     0.187922
    0.0616956     0.203723
    0.0665962     0.219599
    0.0715193     0.235744
    0.0764652     0.252249
    0.0814340     0.269118
    0.0864257     0.286413
    0.0914403     0.304190
    0.0964782     0.322548
     0.101539     0.341538
     0.106624     0.361177
     0.111732     0.381411
     0.116863     0.402213
     0.122018     0.423582
     0.127198     0.445605
     0.132400     0.468312
     0.137627     0.491720
     0.142878     0.515793
     0.148154     0.540433
     0.153453     0.565509
     0.158777     0.590875
     0.164126     0.616450
     0.169499     0.642175
     0.174898     0.668155
     0.180321     0.694497
     0.185769     0.721288
     0.191242     0.748516
     0.196741     0.776120
     0.202264     0.803972
     0.207814     0.831982
     0.213389     0.860080
     0.218990     0.888247
     0.224616     0.916434
     0.230269     0.944528
     0.235947     0.972452
     0.241652      1.00007
     0.247383      1.02738
     0.253141      1.05440
     0.258925      1.08116
     0.264736      1.10755
     0.270574      1.13362
     0.276439      1.15931
     0.282331      1.18475
     0.288249      1.21017
     0.294196      1.23581
     0.300170      1.26170
     0.306171      1.28784
     0.312200      1.31422
     0.318257      1.34091
     0.324342      1.36818
     0.330454      1.39633
     0.336596      1.42557
     0.342765      1.45582
     0.348963      1.48694
     0.355189      1.51841
     0.361445      1.54970
     0.367729      1.58008
     0.374042      1.60885
     0.380384      1.63547
     0.386756      1.65969
     0.393157      1.68154
     0.399587      1.70129
     0.406048      1.71941
     0.412538      1.73631
     0.419057      1.75245
     0.425608      1.76817
     0.432188      1.78393
     0.438799      1.80005
     0.445440      1.81708
     0.452112      1.83528
     0.458814      1.85485
     0.465548      1.87587
     0.472312      1.89833
     0.479108      1.92206
     0.485936      1.94679
     0.492794      1.97221
     0.499685      1.99791
     0.506607      2.02359
     0.513561      2.04893
     0.520548      2.07382
     0.527566      2.09825
     0.534617      2.12251
     0.541700      2.14693
     0.548817      2.17189
     0.555966      2.19760
     0.563148      2.22411
     0.570363      2.25136
     0.577611      2.27918
     0.584893      2.30746
     0.592209      2.33618
     0.599558      2.36540
     0.606941      2.39510
     0.614359      2.42528
     0.621810      2.45600
     0.629296      2.48738
     0.636817      2.51950
     0.644372      2.55258
     0.651962      2.58661
     0.659587      2.62162
     0.667247      2.65758
     0.674943      2.69446
     0.682674      2.73232
     0.690441      2.77136
     0.698244      2.81169
     0.706082      2.85319
     0.713957      2.89560
     0.721869      2.93851
     0.729816      2.98141
     0.737801      3.02376
     0.745822      3.06522
     0.753881      3.10548
     0.761976      3.14450
     0.770109      3.18237
     0.778279      3.21937
     0.786488      3.25593
     0.794734      3.29253
     0.803018      3.32953
     0.811340      3.36719
     0.819701      3.40556
     0.828100      3.44456
     0.836538      3.48406
     0.845015      3.52386
     0.853532      3.56371
     0.862087      3.60343
     0.870682      3.64289
     0.879317      3.68201
     0.887991      3.72073
     0.896706      3.75899
     0.905461      3.79666
     0.914256      3.83365
     0.923092      3.86984
     0.931968      3.90512
     0.940886      3.93941
     0.949845      3.97264
     0.958845      4.00478
     0.967886      4.03588
     0.976970      4.06600
     0.986095      4.09510
     0.995262      4.12321
      1.00447      4.15025
      1.01372      4.17618
      1.02302      4.20095
      1.03236      4.22451
      1.04174      4.24675
      1.05116      4.26766
      1.06063      4.28717
      1.07014      4.30523
      1.07970      4.32179
      1.08930      4.33681
      1.09894      4.35030
      1.10863      4.36237
      1.11836      4.37328
      1.12814      4.38326
      1.13796      4.39248
      1.14783      4.40102
      1.15774      4.40894
      1.16770      4.41625
      1.17771      4.42301
      1.18776      4.42926
      1.19786      4.43509
      1.20800      4.44061
      1.21820      4.44591
      1.22844      4.45103
      1.23872      4.45602
      1.24905      4.46090
      1.25944      4.46570
      1.26986      4.47044
      1.28034      4.47517
      1.29087      4.47997
      1.30144      4.48493
      1.31206      4.49013
      1.32274      4.49562
      1.33346      4.50142
      1.34423      4.50756
      1.35505      4.51406
      1.36592      4.52091
      1.37684      4.52814
      1.38781      4.53573
      1.39883      4.54366
      1.40991      4.55192
      1.42103      4.56050
      1.43220      4.56939
      1.44343      4.57861
      1.45471      4.58816
      1.46604      4.59802
      1.47742      4.60818
      1.48886      4.61860
      1.50035      4.62920
      1.51189      4.63992
      1.52348      4.65070
      1.53513      4.66148
      1.54683      4.67224
      1.55859      4.68297
      1.57040      4.69365
      1.58226      4.70426
      1.59418      4.71479
      1.60615      4.72523
      1.61818      4.73555
      1.63027      4.74573
      1.64241      4.75574
      1.65461      4.76557
      1.66686      4.77519
      1.67917      4.78458
      1.69153      4.79372
      1.70396      4.80258
      1.71644      4.81118
      1.72898      4.81948
      1.74157      4.82750
      1.75423      4.83522
      1.76694      4.84266
      1.77971      4.84985
      1.79254      4.85675
      1.80543      4.86330
      1.81838      4.86946
      1.83139      4.87524
      1.84446      4.88067
      1.85759      4.88574
      1.87078      4.89035
      1.88403      4.89445
      1.89734      4.89816
      1.91072      4.90156
      1.92415      4.90460
      1.93765      4.90721
      1.95121      4.90942
      1.96483      4.91121
      1.97852      4.91270
      1.99226      4.91387
      2.00608      4.91471
      2.01995      4.91516
      2.03389      4.91531
      2.04789      4.91508
      2.06196      4.91460
      2.07610      4.91413
      2.09030      4.91361
      2.10456      4.91293
      2.11889      4.91204
      2.13329      4.91094
      2.14775      4.90969
      2.16228      4.90853
      2.17687      4.90731
      2.19154      4.90604
      2.20627      4.90474
      2.22107      4.90366
      2.23594      4.90270
      2.25087      4.90188
      2.26588      4.90106
      2.28095      4.90018
      2.29610      4.89935
      2.31131      4.89878
      2.32660      4.89837
      2.34195      4.89794
      2.35738      4.89737
      2.37287      4.89639
      2.38844      4.89522
      2.40408      4.89396
      2.41979      4.89258
      2.43558      4.89087
      2.45144      4.88898
      2.46737      4.88687
      2.48337      4.88451
      2.49945      4.88169
      2.51560      4.87855
      2.53183      4.87523
      2.54813      4.87192
      2.56451      4.86865
      2.58096      4.86509
      2.59749      4.86142
      2.61410      4.85762
      2.63078      4.85373
      2.64754      4.84972
      2.66438      4.84585
      2.68129      4.84193
      2.69828      4.83793
      2.71535      4.83364
      2.73250      4.82930
      2.74973      4.82505
      2.76704      4.82114
      2.78443      4.81743
      2.80189      4.81359
      2.81944      4.80981
      2.83707      4.80624
      2.85478      4.80263
      2.87258      4.79871
      2.89045      4.79456
      2.90841      4.79004
      2.92645      4.78572
      2.94457      4.78200
      2.96278      4.77915
      2.98107      4.77698
      2.99945      4.77553
      3.01791      4.77447
      3.03645      4.77379
      3.05509      4.77348
      3.07380      4.77364
      3.09261      4.77381
      3.11150      4.77388
      3.13048      4.77392
      3.14954      4.77392
      3.16869      4.77433
      3.18794      4.77503
      3.20727      4.77582
      3.22669      4.77658
      3.24620      4.77783
      3.26580      4.77969
      3.28549      4.78224
      3.30527      4.78517
      3.32514      4.78868
      3.34510      4.79254
      3.36516      4.79679
      3.38531      4.80145
      3.40555      4.80666
      3.42588      4.81244
      3.44631      4.81846
      3.46684      4.82402
      3.48745      4.82859
      3.50817      4.83245
      3.52898      4.83602
      3.54988      4.84000
      3.57088      4.84421
      3.59198      4.84909
      3.61318      4.85425
      3.63447      4.85970
      3.65586      4.86528
      3.67735      4.87134
      3.69894      4.87802
      3.72063      4.88567
      3.74242      4.89399
      3.76431      4.90274
      3.78630      4.91189
      3.80839      4.92143
      3.83059      4.93122
      3.85288      4.94070
      3.87529      4.95017
      3.89779      4.95958
      3.92039      4.96948
      3.94311      4.98005
      3.96592      4.99131
      3.98884      5.00271
      4.01187      5.01432
      4.03501      5.02572
      4.05825      5.03693
      4.08159      5.04827
      4.10505      5.06004
      4.12861      5.07210
      4.15229      5.08430
      4.17607      5.09716
      4.19996      5.11075
      4.22396      5.12497
      4.24808      5.13934
      4.27230      5.15329
      4.29663      5.16578
      4.32108      5.17731
      4.34564      5.18824
      4.37032      5.19919
      4.39511      5.21061
      4.42001      5.22263
      4.44503      5.23481
      4.47016      5.24666
      4.49541      5.25794
      4.52077      5.26860
      4.54626      5.27858
      4.57186      5.28779
      4.59758      5.29636
      4.62341      5.30439
      4.64937      5.31335
      4.67545      5.32401
      4.70164      5.33627
      4.72796      5.34944
      4.75440      5.36286
      4.78096      5.37585
      4.80764      5.38796
      4.83445      5.39871
      4.86138      5.40775
      4.88844      5.41474
      4.91562      5.41966
      4.94292      5.42243
      4.97035      5.42319
      4.99791      5.42217
      5.02560      5.41990
      5.05341      5.41682
      5.08135      5.41334
      5.10942      5.40967
      5.13762      5.40587
      5.16595      5.40202
      5.19441      5.39811
      5.22300      5.39418
      5.25173      5.39025
      5.28058      5.38642
      5.30957      5.38263
      5.33870      5.37889
      5.36796      5.37514
      5.39735      5.37141
      5.42688      5.36771
      5.45654      5.36410
      5.48634      5.36048
      5.51628      5.35682
      5.54636      5.35307
      5.57658      5.34935
      5.60693      5.34574
      5.63743      5.34228
      5.66807      5.33899
      5.69885      5.33578
      5.72977      5.33260
      5.76083      5.32940
      5.79204      5.32624
      5.82339      5.32307
      5.85488      5.31993
      5.88652      5.31675
      5.91831      5.31352
      5.95024      5.31018
      5.98232      5.30683
      6.01455      5.30356
      6.04693      5.30043
      6.07946      5.29745
      6.11213      5.29454
      6.14496      5.29166
      6.17794      5.28886
      6.21107      5.28626
      6.24436      5.28385
      6.27780      5.28163
      6.31139      5.27956
      6.34514      5.27757
      6.37904      5.27567
      6.41310      5.27390
      6.44732      5.27222
      6.48170      5.27058
      6.51623      5.26898
      6.55092      5.26737
      6.58578      5.26569
      6.62079      5.26396
      6.65597      5.26220
      6.69130      5.26031
      6.72681      5.25834
      6.76247      5.25628
      6.79830      5.25421
      6.83430      5.25223
      6.87046      5.25043
      6.90679      5.24875
      6.94328      5.24717
      6.97995      5.24567
      7.01678      5.24431
      7.05378      5.24311
      7.09096      5.24207
      7.12831      5.24116
      7.16582      5.24036
      7.20352      5.23966
      7.24138      5.23901
      7.27942      5.23836
      7.31764      5.23768
      7.35603      5.23699
      7.39460      5.23635
      7.43335      5.23579
      7.47227      5.23535
      7.51138      5.23507
      7.55067      5.23489
      7.59014      5.23472
      7.62979      5.23450
      7.66962      5.23424
      7.70964      5.23399
      7.74984      5.23382
      7.79023      5.23374
      7.83080      5.23367
      7.87156      5.23357
      7.91251      5.23341
      7.95365      5.23315
      7.99498      5.23286
      8.03649      5.23258
      8.07821      5.23236
      8.12011      5.23221
      8.16220      5.23222
      8.20450      5.23240
      8.24698      5.23279
      8.28966      5.23341
      8.33254      5.23419
      8.37562      5.23508
      8.41890      5.23605
      8.46237      5.23711
      8.50605      5.23822
      8.54993      5.23941
      8.59401      5.24067
      8.63829      5.24193
      8.68278      5.24315
      8.72747      5.24433
      8.77237      5.24542
      8.81748      5.24644
      8.86279      5.24738
      8.90832      5.24823
      8.95405      5.24897
      9.00000      5.24970
      9.04616      5.25049
      9.09253      5.25140
      9.13911      5.25248
      9.18591      5.25377
      9.23293      5.25529
      9.28016      5.25703
      9.32762      5.25905
      9.37529      5.26132
      9.42317      5.26381
      9.47128      5.26653
      9.51962      5.26944
      9.56818      5.27247
      9.61696      5.27562
      9.66596      5.27884
      9.71519      5.28204
      9.76465      5.28515
      9.81434      5.28813
      9.86426      5.29102
      9.91440      5.29391
      9.96478      5.29686
      10.0154      5.29987
      10.0662      5.30290
      10.1173      5.30596
      10.1686      5.30907
      10.2202      5.31227
      10.2720      5.31560
      10.3240      5.31909
      10.3763      5.32273
      10.4288      5.32652
      10.4815      5.33044
      10.5345      5.33446
      10.5878      5.33853
      10.6413      5.34266
      10.6950      5.34684
      10.7490      5.35108
      10.8032      5.35538
      10.8577      5.35977
      10.9124      5.36424
      10.9674      5.36883
      11.0226      5.37356
      11.0781      5.37843
      11.1339      5.38345
      11.1899      5.38861
      11.2462      5.39389
      11.3027      5.39928
      11.3595      5.40476
      11.4165      5.41031
      11.4738      5.41593
      11.5314      5.42158
      11.5893      5.42727
      11.6474      5.43297
      11.7057      5.43870
      11.7644      5.44447
      11.8233      5.45030
      11.8825      5.45621
      11.9420      5.46223
      12.0017      5.46838
      12.0617      5.47466
      12.1220      5.48109
      12.1826      5.48767
      12.2434      5.49439
      12.3045      5.50126
      12.3660      5.50824
      12.4277      5.51533
      12.4896      5.52251
      12.5519      5.52975
      12.6144      5.53701
      12.6773      5.54428
      12.7404      5.55154
      12.8038      5.55879
      12.8676      5.56600
      12.9316      5.57317
      12.9959      5.58028
      13.0605      5.58734
      13.1254      5.59434
      13.1906      5.60132
      13.2561      5.60831
      13.3219      5.61537
      13.3880      5.62255
      13.4544      5.62988
      13.5211      5.63737
      13.5881      5.64504
      13.6555      5.65287
      13.7231      5.66085
      13.7911      5.66896
      13.8594      5.67718
      13.9279      5.68551
      13.9968      5.69390
      14.0661      5.70233
      14.1356      5.71076
      14.2055      5.71916
      14.2757      5.72753
      14.3462      5.73587
      14.4170      5.74421
      14.4882      5.75256
      14.5597      5.76093
      14.6315      5.76932
      14.7036      5.77775
      14.7761      5.78623
      14.8489      5.79479
      14.9221      5.80343
      14.9956      5.81219
      15.0694      5.82106
      15.1436      5.83005
      15.2181      5.83915
      15.2930      5.84837
      15.3682      5.85771
      15.4437      5.86716
      15.5196      5.87675
      15.5959      5.88647
      15.6725      5.89631
      15.7494      5.90626
      15.8267      5.91632
      15.9044      5.92649
      15.9824      5.93677
      16.0608      5.94715
      16.1396      5.95765
      16.2187      5.96824
      16.2982      5.97896
      16.3780      5.98979
      16.4582      6.00075
      16.5388      6.01184
      16.6198      6.02305
      16.7011      6.03440
      16.7828      6.04586
      16.8649      6.05746
      16.9473      6.06917
      17.0302      6.08100
      17.1134      6.09295
      17.1970      6.10504
      17.2810      6.11725
      17.3654      6.12962
      17.4502      6.14214
      17.5353      6.15483
      17.6209      6.16768
      17.7068      6.18070
      17.7932      6.19388
      17.8799      6.20722
      17.9671      6.22069
      18.0546      6.23430
      18.1426      6.24801
      18.2309      6.26180
      18.3197      6.27568
      18.4089      6.28960
      18.4984      6.30357
      18.5884      6.31759
      18.6789      6.33169
      18.7697      6.34591
      18.8609      6.36028
      18.9526      6.37483
      19.0447      6.38954
      19.1372      6.40442
      19.2302      6.41943
      19.3236      6.43456
      19.4174      6.44980
      19.5116      6.46516
      19.6063      6.48062
      19.7014      6.49617
      19.7970      6.51178
      19.8930      6.52741
      19.9894      6.54305
      20.0863      6.55869
      20.1836      6.57437
      20.2814      6.59014
      20.3796      6.60599
      20.4783      6.62193
      20.5774      6.63796
      20.6770      6.65407
      20.7771      6.67027
      20.8776      6.68657
      20.9786      6.70297
      21.0800      6.71947
      21.1820      6.73607
      21.2844      6.75279
      21.3872      6.76961
      21.4905      6.78656
      21.5944      6.80363
      21.6986      6.82083
      21.8034      6.83815
      21.9087      6.85559
      22.0144      6.87317
      22.1206      6.89088
      22.2274      6.90872
      22.3346      6.92668
      22.4423      6.94478
      22.5505      6.96301
      22.6592      6.98137
      22.7684      6.99986
      22.8781      7.01848
      22.9883      7.03724
      23.0991      7.05613
      23.2103      7.07515
      23.3220      7.09431
      23.4343      7.11361
      23.5471      7.13305
      23.6604      7.15262
      23.7742      7.17234
      23.8886      7.19220
      24.0035      7.21219
      24.1189      7.23233
      24.2348      7.25261
      24.3513      7.27304
      24.4683      7.29361
      24.5859      7.31433
      24.7040      7.33519
      24.8226      7.35620
      24.9418      7.37735
      25.0615      7.39865
      25.1818      7.42009
      25.3027      7.44168
      25.4241      7.46342
      25.5461      7.48531
      25.6686      7.50735
      25.7917      7.52953
      25.9153      7.55186
      26.0396      7.57435
      26.1644      7.59698
      26.2898      7.61977
      26.4157      7.64271
      26.5423      7.66580
      26.6694      7.68905
      26.7971      7.71245
      26.9254      7.73601
      27.0543      7.75972
      27.1838      7.78359
      27.3139      7.80761
      27.4446      7.83179
      27.5759      7.85613
      27.7078      7.88063
      27.8403      7.90530
      27.9734      7.93013
      28.1072      7.95512
      28.2415      7.98027
      28.3765      8.00558
      28.5121      8.03105
      28.6483      8.05669
      28.7852      8.08249
      28.9226      8.10844
      29.0608      8.13456
      29.1995      8.16084
      29.3389      8.18729
      29.4789      8.21390
      29.6196      8.24068
      29.7610      8.26763
      29.9030      8.29475
      30.0456      8.32203
      30.1889      8.34950
      30.3329      8.37713
      30.4775      8.40494
      30.6228      8.43291
      30.7687      8.46106
      30.9154      8.48937
      31.0627      8.51787
      31.2107      8.54653
      31.3594      8.57537
      31.5087      8.60439
      31.6588      8.63359
      31.8095      8.66297
      31.9610      8.69253
      32.1131      8.72227
      32.2660      8.75219
      32.4195      8.78228
      32.5738      8.81256
      32.7287      8.84302
      32.8844      8.87366
      33.0408      8.90448
      33.1979      8.93548
      33.3558      8.96666
      33.5144      8.99803
      33.6737      9.02959
      33.8337      9.06135
      33.9945      9.09329
      34.1560      9.12542
      34.3183      9.15773
      34.4813      9.19024
      34.6451      9.22294
      34.8096      9.25584
      34.9749      9.28893
      35.1410      9.32222
      35.3078      9.35570
      35.4754      9.38937
      35.6438      9.42324
      35.8129      9.45732
      35.9828      9.49160
      36.1535      9.52608
      36.3250      9.56074
      36.4973      9.59560
      36.6704      9.63067
      36.8443      9.66595
      37.0189      9.70144
      37.1944      9.73712
      37.3707      9.77300
      37.5478      9.80907
      37.7258      9.84534
      37.9045      9.88181
      38.0841      9.91849
      38.2645      9.95537
      38.4457      9.99247
      38.6278      10.0298
      38.8107      10.0673
      38.9945      10.1050
      39.1791      10.1429
      39.3645      10.1811
      39.5509      10.2195
      39.7380      10.2580
      39.9261      10.2968
      40.1150      10.3358
      40.3048      10.3750
      40.4954      10.4144
      40.6869      10.4540
      40.8794      10.4938
      41.0727      10.5339
      41.2669      10.5742
      41.4620      10.6147
      41.6580      10.6554
      41.8549      10.6963
      42.0527      10.7375
      42.2514      10.7789
      42.4510      10.8205
      42.6516      10.8623
      42.8531      10.9044
      43.0555      10.9467
      43.2588      10.9893
      43.4631      11.0323
      43.6684      11.0755
      43.8745      11.1190
      44.0817      11.1628
      44.2898      11.2068
      44.4988      11.2511
      44.7088      11.2957
      44.9198      11.3407
      45.1318      11.3860
      45.3447      11.4316
      45.5586      11.4777
      45.7735      11.5242
      45.9894      11.5712
      46.2063      11.6188
      46.4242      11.6668
      46.6431      11.7154
      46.8630      11.7645
      47.0839      11.8141
      47.3059      11.8645
      47.5289      11.9155
      47.7528      11.9674
      47.9779      12.0202
      48.2040      12.0738
      48.4311      12.1284
      48.6592      12.1840
      48.8884      12.2407
      49.1187      12.2986
      49.3501      12.3578
      49.5825      12.4185
      49.8159      12.4810
      50.0505      12.5453
      50.2861      12.6116
      50.5229      12.6803
      50.7607      12.7516
      50.9996      12.8259
      51.2396      12.9036
      51.4808      12.9851
      51.7230      13.0710
      51.9663      13.1620
      52.2108      13.2590
      52.4564      13.3631
      52.7032      13.4758
      52.9511      13.5989
      53.2001      13.7349
      53.4503      13.8874
      53.7016      14.0615
      53.9541      14.2653
      54.2077      14.5120
      54.4626      14.8265
      54.7186      15.2636
      54.9758      15.9933
      55.2341      19.1882
      55.4937         -NaN
      55.7545         -NaN
      56.0164         -NaN
      56.2796         -NaN
      56.5440         -NaN
      56.8096         -NaN
      57.0765         -NaN
      57.3445         -NaN
      57.6138         -NaN
      57.8844         -NaN
      58.1562         -NaN
      58.4292         -NaN
      58.7035         -NaN
      58.9791         -NaN
      59.2560         -NaN
      59.5341         -NaN
      59.8135         -NaN
      60.0942         -NaN
      60.3762         -NaN
      60.6595         -NaN
      60.9441         -NaN
      61.2300         -NaN
      61.5173         -NaN
      61.8058         -NaN
      62.0957         -NaN
      62.3870         -NaN
      62.6796         -NaN
      62.9735         -NaN
      63.2688         -NaN
      63.5654         -NaN
      63.8634         -NaN
      64.1628         -NaN
      64.4636         -NaN
      64.7658         -NaN
      65.0694         -NaN
      65.3743         -NaN
      65.6807         -NaN
      65.9885         -NaN
      66.2977         -NaN
      66.6083         -NaN
      66.9204         -NaN
      67.2339         -NaN
      67.5488         -NaN
      67.8652         -NaN
      68.1831         -NaN
      68.5024         -NaN
      68.8232         -NaN
      69.1455         -NaN
      69.4693         -NaN
      69.7946         -NaN
      70.1214         -NaN
      70.4496         -NaN
      70.7794         -NaN
      71.1108         -NaN
      71.4436         -NaN
      71.7780         -NaN
      72.1139         -NaN
      72.4514         -NaN
      72.7904         -NaN
      73.1310         -NaN
      73.4732         -NaN
      73.8169         -NaN
      74.1623         -NaN
      74.5092         -NaN
      74.8578         -NaN
      75.2079         -NaN
      75.5597         -NaN
      75.9130         -NaN
      76.2681         -NaN
      76.6247         -NaN
      76.9830         -NaN
      77.3430         -NaN
      77.7046         -NaN
      78.0679         -NaN
      78.4328         -NaN
      78.7995         -NaN
      79.1678         -NaN
      79.5378         -NaN
      79.9096         -NaN
      80.2830         -NaN
      80.6582         -NaN
      81.0352         -NaN
      81.4138         -NaN
      81.7942         -NaN
      82.1764         -NaN
      82.5603         -NaN
      82.9460         -NaN
      83.3335         -NaN
      83.7227         -NaN
      84.1138         -NaN
      84.5067         -NaN
      84.9014         -NaN
      85.2979         -NaN
      85.6962         -NaN
      86.0964         -NaN
      86.4984         -NaN
      86.9023         -NaN
      87.3080         -NaN
      87.7156         -NaN
      88.1251         -NaN
      88.5365         -NaN
      88.9498         -NaN
      89.3649         -NaN
      89.7820         -NaN
      90.2011         -NaN
      90.6221         -NaN
      91.0450         -NaN
      91.4698         -NaN
      91.8967         -NaN
      92.3254         -NaN
      92.7562         -NaN
      93.1890         -NaN
      93.6237         -NaN
      94.0605         -NaN
      94.4993         -NaN
      94.9401         -NaN
      95.3829         -NaN
      95.8278         -NaN
      96.2747         -NaN
      96.7237         -NaN
      97.1748         -NaN
      97.6279         -NaN
      98.0832         -NaN
      98.5406         -NaN

----------------------------------------------------------------------
SPECTRUM: CWW_Sbc_ext
FILTER:        SDSS g + CCD, [MT]  no atmosphere (Ref. F. Castander)
----------------------------------------------------------------------
      0.00000      0.00000
   0.00461578   0.00614551
   0.00925291    0.0124331
    0.0139114    0.0188782
    0.0185914    0.0254252
    0.0232930    0.0319537
    0.0280163    0.0383897
    0.0327615    0.0448127
    0.0375284    0.0512976
    0.0423174    0.0579637
    0.0471286    0.0648457
    0.0519619    0.0719818
    0.0568175    0.0793218
    0.0616956    0.0868726
    0.0665962    0.0946244
    0.0715193     0.102588
    0.0764652     0.110821
    0.0814340     0.119370
    0.0864257     0.128303
    0.0914403     0.137617
    0.0964782     0.147279
     0.101539     0.157198
     0.106624     0.167350
     0.111732     0.177683
     0.116863     0.188254
     0.122018     0.199076
     0.127198     0.210150
     0.132400     0.221507
     0.137627     0.233176
     0.142878     0.245198
     0.148154     0.257563
     0.153453     0.270256
     0.158777     0.283195
     0.164126     0.296359
     0.169499     0.309766
     0.174898     0.323509
     0.180321     0.337568
     0.185769     0.351994
     0.191242     0.366739
     0.196741     0.381764
     0.202264     0.397093
     0.207814     0.412747
     0.213389     0.428696
     0.218990     0.444892
     0.224616     0.461314
     0.230269     0.477854
     0.235947     0.494450
     0.241652     0.511028
     0.247383     0.527537
     0.253141     0.543881
     0.258925     0.560152
     0.264736     0.576388
     0.270574     0.592711
     0.276439     0.609284
     0.282331     0.626296
     0.288249     0.643807
     0.294196     0.661863
     0.300170     0.680414
     0.306171     0.699305
     0.312200     0.718424
     0.318257     0.737695
     0.324342     0.757087
     0.330454     0.776581
     0.336596     0.796366
     0.342765     0.816528
     0.348963     0.837123
     0.355189     0.858098
     0.361445     0.879303
     0.367729     0.900370
     0.374042     0.920979
     0.380384     0.941033
     0.386756     0.960536
     0.393157     0.979687
     0.399587     0.998755
     0.406048      1.01791
     0.412538      1.03712
     0.419057      1.05633
     0.425608      1.07533
     0.432188      1.09398
     0.438799      1.11228
     0.445440      1.13039
     0.452112      1.14843
     0.458814      1.16658
     0.465548      1.18485
     0.472312      1.20310
     0.479108      1.22112
     0.485936      1.23871
     0.492794      1.25568
     0.499685      1.27194
     0.506607      1.28759
     0.513561      1.30280
     0.520548      1.31778
     0.527566      1.33275
     0.534617      1.34789
     0.541700      1.36323
     0.548817      1.37877
     0.555966      1.39428
     0.563148      1.40960
     0.570363      1.42464
     0.577611      1.43937
     0.584893      1.45377
     0.592209      1.46785
     0.599558      1.48159
     0.606941      1.49498
     0.614359      1.50802
     0.621810      1.52069
     0.629296      1.53300
     0.636817      1.54494
     0.644372      1.55652
     0.651962      1.56775
     0.659587      1.57863
     0.667247      1.58917
     0.674943      1.59938
     0.682674      1.60927
     0.690441      1.61885
     0.698244      1.62813
     0.706082      1.63712
     0.713957      1.64583
     0.721869      1.65427
     0.729816      1.66246
     0.737801      1.67040
     0.745822      1.67810
     0.753881      1.68559
     0.761976      1.69286
     0.770109      1.69993
     0.778279      1.70681
     0.786488      1.71350
     0.794734      1.72003
     0.803018      1.72638
     0.811340      1.73258
     0.819701      1.73862
     0.828100      1.74452
     0.836538      1.75029
     0.845015      1.75593
     0.853532      1.76143
     0.862087      1.76681
     0.870682      1.77206
     0.879317      1.77718
     0.887991      1.78220
     0.896706      1.78711
     0.905461      1.79192
     0.914256      1.79664
     0.923092      1.80127
     0.931968      1.80581
     0.940886      1.81026
     0.949845      1.81463
     0.958845      1.81892
     0.967886      1.82313
     0.976970      1.82728
     0.986095      1.83136
     0.995262      1.83538
      1.00447      1.83934
      1.01372      1.84324
      1.02302      1.84708
      1.03236      1.85087
      1.04174      1.85461
      1.05116      1.85830
      1.06063      1.86195
      1.07014      1.86555
      1.07970      1.86911
      1.08930      1.87264
      1.09894      1.87612
      1.10863      1.87958
      1.11836      1.88300
      1.12814      1.88639
      1.13796      1.88975
      1.14783      1.89308
      1.15774      1.89640
      1.16770      1.89970
      1.17771      1.90300
      1.18776      1.90631
      1.19786      1.90963
      1.20800      1.91296
      1.21820      1.91629
      1.22844      1.91963
      1.23872      1.92298
      1.24905      1.92635
      1.25944      1.92972
      1.26986      1.93310
      1.28034      1.93647
      1.29087      1.93981
      1.30144      1.94311
      1.31206      1.94634
      1.32274      1.94947
      1.33346      1.95254
      1.34423      1.95559
      1.35505      1.95856
      1.36592      1.96145
      1.37684      1.96424
      1.38781      1.96687
      1.39883      1.96941
      1.40991      1.97193
      1.42103      1.97441
      1.43220      1.97686
      1.44343      1.97933
      1.45471      1.98158
      1.46604      1.98375
      1.47742      1.98598
      1.48886      1.98829
      1.50035      1.99069
      1.51189      1.99322
      1.52348      1.99571
      1.53513      1.99817
      1.54683      2.00072
      1.55859      2.00335
      1.57040      2.00595
      1.58226      2.00851
      1.59418      2.01105
      1.60615      2.01334
      1.61818      2.01554
      1.63027      2.01770
      1.64241      2.01973
      1.65461      2.02158
      1.66686      2.02320
      1.67917      2.02436
      1.69153      2.02529
      1.70396      2.02613
      1.71644      2.02686
      1.72898      2.02731
      1.74157      2.02744
      1.75423      2.02736
      1.76694      2.02712
      1.77971      2.02706
      1.79254      2.02714
      1.80543      2.02716
      1.81838      2.02691
      1.83139      2.02652
      1.84446      2.02588
      1.85759      2.02535
      1.87078      2.02484
      1.88403      2.02411
      1.89734      2.02305
      1.91072      2.02165
      1.92415      2.01996
      1.93765      2.01801
      1.95121      2.01595
      1.96483      2.01371
      1.97852      2.01124
      1.99226      2.00843
      2.00608      2.00536
      2.01995      2.00179
      2.03389      1.99812
      2.04789      1.99432
      2.06196      1.99033
      2.07610      1.98621
      2.09030      1.98188
      2.10456      1.97736
      2.11889      1.97291
      2.13329      1.96867
      2.14775      1.96460
      2.16228      1.96074
      2.17687      1.95677
      2.19154      1.95291
      2.20627      1.94932
      2.22107      1.94669
      2.23594      1.94494
      2.25087      1.94378
      2.26588      1.94272
      2.28095      1.94152
      2.29610      1.94042
      2.31131      1.93995
      2.32660      1.93991
      2.34195      1.93995
      2.35738      1.93970
      2.37287      1.93862
      2.38844      1.93735
      2.40408      1.93625
      2.41979      1.93521
      2.43558      1.93385
      2.45144      1.93217
      2.46737      1.92993
      2.48337      1.92708
      2.49945      1.92350
      2.51560      1.91939
      2.53183      1.91498
      2.54813      1.91068
      2.56451      1.90666
      2.58096      1.90255
      2.59749      1.89898
      2.61410      1.89595
      2.63078      1.89338
      2.64754      1.89118
      2.66438      1.88966
      2.68129      1.88844
      2.69828      1.88744
      2.71535      1.88632
      2.73250      1.88528
      2.74973      1.88453
      2.76704      1.88438
      2.78443      1.88462
      2.80189      1.88475
      2.81944      1.88503
      2.83707      1.88566
      2.85478      1.88627
      2.87258      1.88659
      2.89045      1.88683
      2.90841      1.88676
      2.92645      1.88710
      2.94457      1.88821
      2.96278      1.89039
      2.98107      1.89328
      2.99945      1.89701
      3.01791      1.90124
      3.03645      1.90607
      3.05509      1.91153
      3.07380      1.91777
      3.09261      1.92401
      3.11150      1.93005
      3.13048      1.93610
      3.14954      1.94218
      3.16869      1.94898
      3.18794      1.95629
      3.20727      1.96378
      3.22669      1.97122
      3.24620      1.97945
      3.26580      1.98863
      3.28549      1.99881
      3.30527      2.00935
      3.32514      2.02056
      3.34510      2.03201
      3.36516      2.04393
      3.38531      2.05649
      3.40555      2.06991
      3.42588      2.08406
      3.44631      2.09827
      3.46684      2.11128
      3.48745      2.12219
      3.50817      2.13166
      3.52898      2.14066
      3.54988      2.15052
      3.57088      2.16101
      3.59198      2.17302
      3.61318      2.18595
      3.63447      2.19985
      3.65586      2.21444
      3.67735      2.23022
      3.69894      2.24729
      3.72063      2.26622
      3.74242      2.28643
      3.76431      2.30746
      3.78630      2.32937
      3.80839      2.35223
      3.83059      2.37591
      3.85288      2.39925
      3.87529      2.42288
      3.89779      2.44665
      3.92039      2.47164
      3.94311      2.49830
      3.96592      2.52680
      3.98884      2.55595
      4.01187      2.58600
      4.03501      2.61602
      4.05825      2.64608
      4.08159      2.67699
      4.10505      2.70945
      4.12861      2.74322
      4.15229      2.77794
      4.17607      2.81496
      4.19996      2.85467
      4.22396      2.89694
      4.24808      2.94053
      4.27230      2.98366
      4.29663      3.02313
      4.32108      3.06024
      4.34564      3.09619
      4.37032      3.13340
      4.39511      3.17374
      4.42001      3.21811
      4.44503      3.26530
      4.47016      3.31355
      4.49541      3.36166
      4.52077      3.40912
      4.54626      3.45539
      4.57186      3.49971
      4.59758      3.54220
      4.62341      3.58283
      4.64937      3.62747
      4.67545      3.68002
      4.70164      3.74120
      4.72796      3.80908
      4.75440      3.88134
      4.78096      3.95524
      4.80764      4.02851
      4.83445      4.09866
      4.86138      4.16348
      4.88844      4.22050
      4.91562      4.26879
      4.94292      4.30723
      4.97035      4.33583
      4.99791      4.35547
      5.02560      4.36851
      5.05341      4.37729
      5.08135      4.38376
      5.10942      4.38890
      5.13762      4.39319
      5.16595      4.39691
      5.19441      4.40016
      5.22300      4.40311
      5.25173      4.40590
      5.28058      4.40885
      5.30957      4.41178
      5.33870      4.41474
      5.36796      4.41749
      5.39735      4.42018
      5.42688      4.42284
      5.45654      4.42567
      5.48634      4.42834
      5.51628      4.43067
      5.54636      4.43257
      5.57658      4.43443
      5.60693      4.43666
      5.63743      4.43944
      5.66807      4.44279
      5.69885      4.44643
      5.72977      4.45013
      5.76083      4.45374
      5.79204      4.45743
      5.82339      4.46104
      5.85488      4.46470
      5.88652      4.46821
      5.91831      4.47148
      5.95024      4.47430
      5.98232      4.47703
      6.01455      4.47984
      6.04693      4.48293
      6.07946      4.48635
      6.11213      4.48986
      6.14496      4.49329
      6.17794      4.49688
      6.21107      4.50109
      6.24436      4.50581
      6.27780      4.51113
      6.31139      4.51683
      6.34514      4.52277
      6.37904      4.52891
      6.41310      4.53553
      6.44732      4.54239
      6.48170      4.54937
      6.51623      4.55642
      6.55092      4.56338
      6.58578      4.57002
      6.62079      4.57643
      6.65597      4.58258
      6.69130      4.58809
      6.72681      4.59303
      6.76247      4.59743
      6.79830      4.60162
      6.83430      4.60610
      6.87046      4.61127
      6.90679      4.61688
      6.94328      4.62275
      6.97995      4.62888
      7.01678      4.63549
      7.05378      4.64275
      7.09096      4.65062
      7.12831      4.65902
      7.16582      4.66780
      7.20352      4.67690
      7.24138      4.68611
      7.27942      4.69522
      7.31764      4.70402
      7.35603      4.71262
      7.39460      4.72123
      7.43335      4.73005
      7.47227      4.73926
      7.51138      4.74911
      7.55067      4.75935
      7.59014      4.76956
      7.62979      4.77949
      7.66962      4.78912
      7.70964      4.79874
      7.74984      4.80866
      7.79023      4.81886
      7.83080      4.82893
      7.87156      4.83859
      7.91251      4.84767
      7.95365      4.85606
      7.99498      4.86391
      8.03649      4.87151
      8.07821      4.87892
      8.12011      4.88625
      8.16220      4.89397
      8.20450      4.90232
      8.24698      4.91153
      8.28966      4.92168
      8.33254      4.93258
      8.37562      4.94377
      8.41890      4.95518
      8.46237      4.96683
      8.50605      4.97865
      8.54993      4.99078
      8.59401      5.00324
      8.63829      5.01564
      8.68278      5.02760
      8.72747      5.03916
      8.77237      5.05007
      8.81748      5.06025
      8.86279      5.06969
      8.90832      5.07824
      8.95405      5.08571
      9.00000      5.09261
      9.04616      5.09939
      9.09253      5.10638
      9.13911      5.11391
      9.18591      5.12226
      9.23293      5.13142
      9.28016      5.14147
      9.32762      5.15275
      9.37529      5.16518
      9.42317      5.17866
      9.47128      5.19333
      9.51962      5.20895
      9.56818      5.22509
      9.61696      5.24177
      9.66596      5.25858
      9.71519      5.27479
      9.76465      5.28966
      9.81434      5.30270
      9.86426      5.31409
      9.91440      5.32459
      9.96478      5.33484
      10.0154      5.34486
      10.0662      5.35457
      10.1173      5.36399
      10.1686      5.37334
      10.2202      5.38287
      10.2720      5.39289
      10.3240      5.40360
      10.3763      5.41504
      10.4288      5.42719
      10.4815      5.43983
      10.5345      5.45277
      10.5878      5.46577
      10.6413      5.47878
      10.6950      5.49176
      10.7490      5.50476
      10.8032      5.51782
      10.8577      5.53106
      10.9124      5.54458
      10.9674      5.55854
      11.0226      5.57308
      11.0781      5.58826
      11.1339      5.60415
      11.1899      5.62069
      11.2462      5.63774
      11.3027      5.65518
      11.3595      5.67292
      11.4165      5.69086
      11.4738      5.70888
      11.5314      5.72687
      11.5893      5.74472
      11.6474      5.76237
      11.7057      5.77987
      11.7644      5.79734
      11.8233      5.81488
      11.8825      5.83275
      11.9420      5.85115
      12.0017      5.87019
      12.0617      5.89001
      12.1220      5.91073
      12.1826      5.93234
      12.2434      5.95488
      12.3045      5.97833
      12.3660      6.00255
      12.4277      6.02740
      12.4896      6.05279
      12.5519      6.07845
      12.6144      6.10401
      12.6773      6.12929
      12.7404      6.15406
      12.8038      6.17814
      12.8676      6.20139
      12.9316      6.22362
      12.9959      6.24458
      13.0605      6.26420
      13.1254      6.28253
      13.1906      6.29974
      13.2561      6.31620
      13.3219      6.33250
      13.3880      6.34911
      13.4544      6.36638
      13.5211      6.38457
      13.5881      6.40376
      13.6555      6.42388
      13.7231      6.44483
      13.7911      6.46647
      13.8594      6.48862
      13.9279      6.51110
      13.9968      6.53357
      14.0661      6.55551
      14.1356      6.57646
      14.2055      6.59602
      14.2757      6.61406
      14.3462      6.63059
      14.4170      6.64577
      14.4882      6.65975
      14.5597      6.67263
      14.6315      6.68452
      14.7036      6.69555
      14.7761      6.70589
      14.8489      6.71586
      14.9221      6.72569
      14.9956      6.73554
      15.0694      6.74551
      15.1436      6.75562
      15.2181      6.76590
      15.2930      6.77633
      15.3682      6.78694
      15.4437      6.79770
      15.5196      6.80869
      15.5959      6.81989
      15.6725      6.83129
      15.7494      6.84275
      15.8267      6.85428
      15.9044      6.86583
      15.9824      6.87743
      16.0608      6.88907
      16.1396      6.90072
      16.2187      6.91236
      16.2982      6.92406
      16.3780      6.93588
      16.4582      6.94783
      16.5388      6.95994
      16.6198      6.97218
      16.7011      6.98456
      16.7828      6.99699
      16.8649      7.00945
      16.9473      7.02184
      17.0302      7.03413
      17.1134      7.04630
      17.1970      7.05840
      17.2810      7.07050
      17.3654      7.08272
      17.4502      7.09516
      17.5353      7.10789
      17.6209      7.12098
      17.7068      7.13447
      17.7932      7.14838
      17.8799      7.16261
      17.9671      7.17709
      18.0546      7.19166
      18.1426      7.20618
      18.2309      7.22052
      18.3197      7.23457
      18.4089      7.24815
      18.4984      7.26125
      18.5884      7.27392
      18.6789      7.28635
      18.7697      7.29880
      18.8609      7.31152
      18.9526      7.32464
      19.0447      7.33814
      19.1372      7.35192
      19.2302      7.36586
      19.3236      7.37988
      19.4174      7.39388
      19.5116      7.40786
      19.6063      7.42175
      19.7014      7.43545
      19.7970      7.44879
      19.8930      7.46157
      19.9894      7.47366
      20.0863      7.48510
      20.1836      7.49610
      20.2814      7.50685
      20.3796      7.51745
      20.4783      7.52792
      20.5774      7.53829
      20.6770      7.54855
      20.7771      7.55873
      20.8776      7.56887
      20.9786      7.57897
      21.0800      7.58907
      21.1820      7.59917
      21.2844      7.60928
      21.3872      7.61943
      21.4905      7.62963
      21.5944      7.63990
      21.6986      7.65025
      21.8034      7.66069
      21.9087      7.67121
      22.0144      7.68182
      22.1206      7.69253
      22.2274      7.70333
      22.3346      7.71423
      22.4423      7.72523
      22.5505      7.73633
      22.6592      7.74752
      22.7684      7.75881
      22.8781      7.77019
      22.9883      7.78168
      23.0991      7.79327
      23.2103      7.80497
      23.3220      7.81677
      23.4343      7.82869
      23.5471      7.84071
      23.6604      7.85285
      23.7742      7.86510
      23.8886      7.87747
      24.0035      7.88995
      24.1189      7.90255
      24.2348      7.91526
      24.3513      7.92809
      24.4683      7.94103
      24.5859      7.95409
      24.7040      7.96728
      24.8226      7.98058
      24.9418      7.99400
      25.0615      8.00753
      25.1818      8.02120
      25.3027      8.03498
      25.4241      8.04888
      25.5461      8.06291
      25.6686      8.07706
      25.7917      8.09133
      25.9153      8.10573
      26.0396      8.12025
      26.1644      8.13490
      26.2898      8.14967
      26.4157      8.16458
      26.5423      8.17960
      26.6694      8.19476
      26.7971      8.21004
      26.9254      8.22546
      27.0543      8.24100
      27.1838      8.25667
      27.3139      8.27247
      27.4446      8.28840
      27.5759      8.30446
      27.7078      8.32066
      27.8403      8.33699
      27.9734      8.35346
      28.1072      8.37005
      28.2415      8.38679
      28.3765      8.40366
      28.5121      8.42066
      28.6483      8.43781
      28.7852      8.45509
      28.9226      8.47250
      29.0608      8.49006
      29.1995      8.50775
      29.3389      8.52558
      29.4789      8.54356
      29.6196      8.56168
      29.7610      8.57994
      29.9030      8.59834
      30.0456      8.61689
      30.1889      8.63558
      30.3329      8.65441
      30.4775      8.67339
      30.6228      8.69251
      30.7687      8.71177
      30.9154      8.73119
      31.0627      8.75075
      31.2107      8.77046
      31.3594      8.79031
      31.5087      8.81031
      31.6588      8.83047
      31.8095      8.85078
      31.9610      8.87124
      32.1131      8.89185
      32.2660      8.91262
      32.4195      8.93354
      32.5738      8.95461
      32.7287      8.97583
      32.8844      8.99721
      33.0408      9.01875
      33.1979      9.04044
      33.3558      9.06229
      33.5144      9.08429
      33.6737      9.10646
      33.8337      9.12879
      33.9945      9.15128
      34.1560      9.17392
      34.3183      9.19672
      34.4813      9.21969
      34.6451      9.24282
      34.8096      9.26612
      34.9749      9.28958
      35.1410      9.31321
      35.3078      9.33699
      35.4754      9.36095
      35.6438      9.38508
      35.8129      9.40937
      35.9828      9.43384
      36.1535      9.45847
      36.3250      9.48328
      36.4973      9.50825
      36.6704      9.53339
      36.8443      9.55871
      37.0189      9.58421
      37.1944      9.60987
      37.3707      9.63571
      37.5478      9.66172
      37.7258      9.68790
      37.9045      9.71426
      38.0841      9.74079
      38.2645      9.76751
      38.4457      9.79440
      38.6278      9.82148
      38.8107      9.84873
      38.9945      9.87616
      39.1791      9.90378
      39.3645      9.93158
      39.5509      9.95956
      39.7380      9.98773
      39.9261      10.0161
      40.1150      10.0446
      40.3048      10.0733
      40.4954      10.1022
      40.6869      10.1313
      40.8794      10.1605
      41.0727      10.1900
      41.2669      10.2196
      41.4620      10.2495
      41.6580      10.2795
      41.8549      10.3097
      42.0527      10.3401
      42.2514      10.3707
      42.4510      10.4015
      42.6516      10.4325
      42.8531      10.4637
      43.0555      10.4951
      43.2588      10.5268
      43.4631      10.5587
      43.6684      10.5908
      43.8745      10.6231
      44.0817      10.6557
      44.2898      10.6885
      44.4988      10.7216
      44.7088      10.7550
      44.9198      10.7886
      45.1318      10.8225
      45.3447      10.8567
      45.5586      10.8913
      45.7735      10.9262
      45.9894      10.9614
      46.2063      10.9971
      46.4242      11.0332
      46.6431      11.0696
      46.8630      11.1065
      47.0839      11.1439
      47.3059      11.1817
      47.5289      11.2201
      47.7528      11.2590
      47.9779      11.2986
      48.2040      11.3388
      48.4311      11.3796
      48.6592      11.4212
      48.8884      11.4635
      49.1187      11.5066
      49.3501      11.5506
      49.5825      11.5956
      49.8159      11.6416
      50.0505      11.6887
      50.2861      11.7371
      50.5229      11.7868
      50.7607      11.8380
      50.9996      11.8908
      51.2396      11.9454
      51.4808      12.0020
      51.7230      12.0607
      51.9663      12.1218
      52.2108      12.1856
      52.4564      12.2523
      52.7032      12.3225
      52.9511      12.3966
      53.2001      12.4751
      53.4503      12.5586
      53.7016      12.6481
      53.9541      12.7445
      54.2077      12.8491
      54.4626      12.9639
      54.7186      13.0910
      54.9758      13.2336
      55.2341      13.3966
      55.4937      13.5869
      55.7545      13.8162
      56.0164      14.1054
      56.2796      14.4981
      56.5440      15.1157
      56.8096      16.6800
      57.0765         -NaN
      57.3445         -NaN
      57.6138         -NaN
      57.8844         -NaN
      58.1562         -NaN
      58.4292         -NaN
      58.7035         -NaN
      58.9791         -NaN
      59.2560         -NaN
      59.5341         -NaN
      59.8135         -NaN
      60.0942         -NaN
      60.3762         -NaN
      60.6595         -NaN
      60.9441         -NaN
      61.2300         -NaN
      61.5173         -NaN
      61.8058         -NaN
      62.0957         -NaN
      62.3870         -NaN
      62.6796         -NaN
      62.9735         -NaN
      63.2688         -NaN
      63.5654         -NaN
      63.8634         -NaN
      64.1628         -NaN
      64.4636         -NaN
      64.7658         -NaN
      65.0694         -NaN
      65.3743         -NaN
      65.6807         -NaN
      65.9885         -NaN
      66.2977         -NaN
      66.6083         -NaN
      66.9204         -NaN
      67.2339         -NaN
      67.5488         -NaN
      67.8652         -NaN
      68.1831         -NaN
      68.5024         -NaN
      68.8232         -NaN
      69.1455         -NaN
      69.4693         -NaN
      69.7946         -NaN
      70.1214         -NaN
      70.4496         -NaN
      70.7794         -NaN
      71.1108         -NaN
      71.4436         -NaN
      71.7780         -NaN
      72.1139         -NaN
      72.4514         -NaN
      72.7904         -NaN
      73.1310         -NaN
      73.4732         -NaN
      73.8169         -NaN
      74.1623         -NaN
      74.5092         -NaN
      74.8578         -NaN
      75.2079         -NaN
      75.5597         -NaN
      75.9130         -NaN
      76.2681         -NaN
      76.6247         -NaN
      76.9830         -NaN
      77.3430         -NaN
      77.7046         -NaN
      78.0679         -NaN
      78.4328         -NaN
      78.7995         -NaN
      79.1678         -NaN
      79.5378         -NaN
      79.9096         -NaN
      80.2830         -NaN
      80.6582         -NaN
      81.0352         -NaN
      81.4138         -NaN
      81.7942         -NaN
      82.1764         -NaN
      82.5603         -NaN
      82.9460         -NaN
      83.3335         -NaN
      83.7227         -NaN
      84.1138         -NaN
      84.5067         -NaN
      84.9014         -NaN
      85.2979         -NaN
      85.6962         -NaN
      86.0964         -NaN
      86.4984         -NaN
      86.9023         -NaN
      87.3080         -NaN
      87.7156         -NaN
      88.1251         -NaN
      88.5365         -NaN
      88.9498         -NaN
      89.3649         -NaN
      89.7820         -NaN
      90.2011         -NaN
      90.6221         -NaN
      91.0450         -NaN
      91.4698         -NaN
      91.8967         -NaN
      92.3254         -NaN
      92.7562         -NaN
      93.1890         -NaN
      93.6237         -NaN
      94.0605         -NaN
      94.4993         -NaN
      94.9401         -NaN
      95.3829         -NaN
      95.8278         -NaN
      96.2747         -NaN
      96.7237         -NaN
      97.1748         -NaN
      97.6279         -NaN
      98.0832         -NaN
      98.5406         -NaN

----------------------------------------------------------------------
SPECTRUM: CWW_Scd_ext
FILTER:        SDSS g + CCD, [MT]  no atmosphere (Ref. F. Castander)
----------------------------------------------------------------------
      0.00000      0.00000
   0.00461578   0.00400287
   0.00925291   0.00812785
    0.0139114    0.0123002
    0.0185914    0.0164600
    0.0232930    0.0206305
    0.0280163    0.0248642
    0.0327615    0.0292553
    0.0375284    0.0337570
    0.0423174    0.0384328
    0.0471286    0.0432758
    0.0519619    0.0483476
    0.0568175    0.0535642
    0.0616956    0.0589606
    0.0665962    0.0645511
    0.0715193    0.0704095
    0.0764652    0.0767252
    0.0814340    0.0836641
    0.0864257    0.0914005
    0.0914403    0.0999894
    0.0964782     0.109294
     0.101539     0.118987
     0.106624     0.128828
     0.111732     0.138606
     0.116863     0.148418
     0.122018     0.158341
     0.127198     0.168372
     0.132400     0.178537
     0.137627     0.188820
     0.142878     0.199185
     0.148154     0.209577
     0.153453     0.220035
     0.158777     0.230529
     0.164126     0.241098
     0.169499     0.251866
     0.174898     0.262899
     0.180321     0.274137
     0.185769     0.285618
     0.191242     0.297263
     0.196741     0.308976
     0.202264     0.320785
     0.207814     0.332728
     0.213389     0.344786
     0.218990     0.356948
     0.224616     0.369239
     0.230269     0.381544
     0.235947     0.393819
     0.241652     0.406078
     0.247383     0.418312
     0.253141     0.430416
     0.258925     0.442490
     0.264736     0.454471
     0.270574     0.466372
     0.276439     0.478341
     0.282331     0.490553
     0.288249     0.503040
     0.294196     0.515876
     0.300170     0.529024
     0.306171     0.542302
     0.312200     0.555627
     0.318257     0.568963
     0.324342     0.582289
     0.330454     0.595589
     0.336596     0.609089
     0.342765     0.622810
     0.348963     0.636755
     0.355189     0.650925
     0.361445     0.665220
     0.367729     0.679347
     0.374042     0.693120
     0.380384     0.706461
     0.386756     0.719297
     0.393157     0.731812
     0.399587     0.744229
     0.406048     0.756673
     0.412538     0.769087
     0.419057     0.781453
     0.425608     0.793524
     0.432188     0.805160
     0.438799     0.816532
     0.445440     0.827897
     0.452112     0.839493
     0.458814     0.851608
     0.465548     0.864134
     0.472312     0.876655
     0.479108     0.888728
     0.485936     0.899943
     0.492794     0.910017
     0.499685     0.918932
     0.506607     0.926938
     0.513561     0.934336
     0.520548     0.941409
     0.527566     0.948362
     0.534617     0.955307
     0.541700     0.962298
     0.548817     0.969337
     0.555966     0.976377
     0.563148     0.983378
     0.570363     0.990315
     0.577611     0.997174
     0.584893      1.00395
     0.592209      1.01063
     0.599558      1.01720
     0.606941      1.02365
     0.614359      1.02998
     0.621810      1.03619
     0.629296      1.04226
     0.636817      1.04820
     0.644372      1.05400
     0.651962      1.05968
     0.659587      1.06522
     0.667247      1.07064
     0.674943      1.07593
     0.682674      1.08110
     0.690441      1.08615
     0.698244      1.09109
     0.706082      1.09591
     0.713957      1.10060
     0.721869      1.10516
     0.729816      1.10959
     0.737801      1.11388
     0.745822      1.11802
     0.753881      1.12200
     0.761976      1.12583
     0.770109      1.12950
     0.778279      1.13299
     0.786488      1.13632
     0.794734      1.13948
     0.803018      1.14246
     0.811340      1.14527
     0.819701      1.14789
     0.828100      1.15033
     0.836538      1.15259
     0.845015      1.15466
     0.853532      1.15654
     0.862087      1.15824
     0.870682      1.15974
     0.879317      1.16106
     0.887991      1.16219
     0.896706      1.16314
     0.905461      1.16390
     0.914256      1.16448
     0.923092      1.16488
     0.931968      1.16510
     0.940886      1.16513
     0.949845      1.16499
     0.958845      1.16467
     0.967886      1.16419
     0.976970      1.16354
     0.986095      1.16275
     0.995262      1.16180
      1.00447      1.16070
      1.01372      1.15946
      1.02302      1.15808
      1.03236      1.15658
      1.04174      1.15495
      1.05116      1.15322
      1.06063      1.15139
      1.07014      1.14947
      1.07970      1.14746
      1.08930      1.14537
      1.09894      1.14321
      1.10863      1.14098
      1.11836      1.13871
      1.12814      1.13639
      1.13796      1.13405
      1.14783      1.13168
      1.15774      1.12931
      1.16770      1.12693
      1.17771      1.12458
      1.18776      1.12226
      1.19786      1.12000
      1.20800      1.11778
      1.21820      1.11562
      1.22844      1.11351
      1.23872      1.11148
      1.24905      1.10954
      1.25944      1.10766
      1.26986      1.10586
      1.28034      1.10413
      1.29087      1.10245
      1.30144      1.10079
      1.31206      1.09913
      1.32274      1.09744
      1.33346      1.09576
      1.34423      1.09415
      1.35505      1.09254
      1.36592      1.09093
      1.37684      1.08928
      1.38781      1.08755
      1.39883      1.08580
      1.40991      1.08412
      1.42103      1.08249
      1.43220      1.08091
      1.44343      1.07944
      1.45471      1.07782
      1.46604      1.07622
      1.47742      1.07477
      1.48886      1.07349
      1.50035      1.07239
      1.51189      1.07153
      1.52348      1.07069
      1.53513      1.06991
      1.54683      1.06929
      1.55859      1.06885
      1.57040      1.06844
      1.58226      1.06808
      1.59418      1.06777
      1.60615      1.06727
      1.61818      1.06677
      1.63027      1.06629
      1.64241      1.06577
      1.65461      1.06512
      1.66686      1.06432
      1.67917      1.06311
      1.69153      1.06176
      1.70396      1.06039
      1.71644      1.05898
      1.72898      1.05738
      1.74157      1.05553
      1.75423      1.05354
      1.76694      1.05149
      1.77971      1.04969
      1.79254      1.04812
      1.80543      1.04657
      1.81838      1.04482
      1.83139      1.04302
      1.84446      1.04104
      1.85759      1.03926
      1.87078      1.03758
      1.88403      1.03576
      1.89734      1.03369
      1.91072      1.03137
      1.92415      1.02882
      1.93765      1.02610
      1.95121      1.02335
      1.96483      1.02049
      1.97852      1.01749
      1.99226      1.01422
      2.00608      1.01077
      2.01995      1.00688
      2.03389      1.00297
      2.04789     0.998994
      2.06196     0.994863
      2.07610     0.990628
      2.09030     0.986208
      2.10456     0.981613
      2.11889     0.977086
      2.13329     0.972784
      2.14775     0.968653
      2.16228     0.964726
      2.17687     0.960698
      2.19154     0.956785
      2.20627     0.953140
      2.22107     0.950468
      2.23594     0.948657
      2.25087     0.947443
      2.26588     0.946332
      2.28095     0.945084
      2.29610     0.943937
      2.31131     0.943418
      2.32660     0.943326
      2.34195     0.943319
      2.35738     0.943018
      2.37287     0.941886
      2.38844     0.940570
      2.40408     0.939418
      2.41979     0.938329
      2.43558     0.936914
      2.45144     0.935171
      2.46737     0.932879
      2.48337     0.929981
      2.49945     0.926342
      2.51560     0.922172
      2.53183     0.917715
      2.54813     0.913355
      2.56451     0.909286
      2.58096     0.905127
      2.59749     0.901500
      2.61410     0.898426
      2.63078     0.895795
      2.64754     0.893550
      2.66438     0.891977
      2.68129     0.890709
      2.69828     0.889665
      2.71535     0.888493
      2.73250     0.887404
      2.74973     0.886602
      2.76704     0.886406
      2.78443     0.886597
      2.80189     0.886687
      2.81944     0.886923
      2.83707     0.887500
      2.85478     0.888073
      2.87258     0.888343
      2.89045     0.888541
      2.90841     0.888424
      2.92645     0.888719
      2.94457     0.889788
      2.96278     0.891917
      2.98107     0.894773
      2.99945     0.898469
      3.01791     0.902665
      3.03645     0.907453
      3.05509     0.912876
      3.07380     0.919088
      3.09261     0.925297
      3.11150     0.931308
      3.13048     0.937323
      3.14954     0.943381
      3.16869     0.950153
      3.18794     0.957435
      3.20727     0.964913
      3.22669     0.972332
      3.24620     0.980538
      3.26580     0.989700
      3.28549     0.999864
      3.30527      1.01039
      3.32514      1.02158
      3.34510      1.03304
      3.36516      1.04496
      3.38531      1.05752
      3.40555      1.07094
      3.42588      1.08511
      3.44631      1.09934
      3.46684      1.11237
      3.48745      1.12330
      3.50817      1.13278
      3.52898      1.14181
      3.54988      1.15169
      3.57088      1.16221
      3.59198      1.17425
      3.61318      1.18721
      3.63447      1.20113
      3.65586      1.21575
      3.67735      1.23155
      3.69894      1.24864
      3.72063      1.26759
      3.74242      1.28784
      3.76431      1.30889
      3.78630      1.33084
      3.80839      1.35374
      3.83059      1.37746
      3.85288      1.40085
      3.87529      1.42452
      3.89779      1.44834
      3.92039      1.47338
      3.94311      1.50011
      3.96592      1.52867
      3.98884      1.55790
      4.01187      1.58804
      4.03501      1.61814
      4.05825      1.64830
      4.08159      1.67931
      4.10505      1.71188
      4.12861      1.74577
      4.15229      1.78061
      4.17607      1.81777
      4.19996      1.85763
      4.22396      1.90007
      4.24808      1.94385
      4.27230      1.98719
      4.29663      2.02685
      4.32108      2.06415
      4.34564      2.10029
      4.37032      2.13770
      4.39511      2.17827
      4.42001      2.22290
      4.44503      2.27038
      4.47016      2.31894
      4.49541      2.36737
      4.52077      2.41517
      4.54626      2.46179
      4.57186      2.50647
      4.59758      2.54931
      4.62341      2.59030
      4.64937      2.63535
      4.67545      2.68840
      4.70164      2.75020
      4.72796      2.81881
      4.75440      2.89190
      4.78096      2.96671
      4.80764      3.04096
      4.83445      3.11211
      4.86138      3.17793
      4.88844      3.23590
      4.91562      3.28505
      4.94292      3.32424
      4.97035      3.35343
      4.99791      3.37352
      5.02560      3.38691
      5.05341      3.39597
      5.08135      3.40267
      5.10942      3.40802
      5.13762      3.41251
      5.16595      3.41643
      5.19441      3.41986
      5.22300      3.42299
      5.25173      3.42596
      5.28058      3.42909
      5.30957      3.43220
      5.33870      3.43535
      5.36796      3.43828
      5.39735      3.44115
      5.42688      3.44399
      5.45654      3.44699
      5.48634      3.44985
      5.51628      3.45235
      5.54636      3.45441
      5.57658      3.45644
      5.60693      3.45884
      5.63743      3.46180
      5.66807      3.46535
      5.69885      3.46919
      5.72977      3.47310
      5.76083      3.47692
      5.79204      3.48082
      5.82339      3.48464
      5.85488      3.48850
      5.88652      3.49222
      5.91831      3.49571
      5.95024      3.49872
      5.98232      3.50164
      6.01455      3.50465
      6.04693      3.50794
      6.07946      3.51156
      6.11213      3.51528
      6.14496      3.51891
      6.17794      3.52272
      6.21107      3.52715
      6.24436      3.53212
      6.27780      3.53770
      6.31139      3.54366
      6.34514      3.54988
      6.37904      3.55630
      6.41310      3.56322
      6.44732      3.57038
      6.48170      3.57767
      6.51623      3.58503
      6.55092      3.59231
      6.58578      3.59925
      6.62079      3.60596
      6.65597      3.61240
      6.69130      3.61819
      6.72681      3.62339
      6.76247      3.62804
      6.79830      3.63247
      6.83430      3.63719
      6.87046      3.64263
      6.90679      3.64852
      6.94328      3.65469
      6.97995      3.66112
      7.01678      3.66805
      7.05378      3.67564
      7.09096      3.68388
      7.12831      3.69266
      7.16582      3.70184
      7.20352      3.71134
      7.24138      3.72097
      7.27942      3.73049
      7.31764      3.73970
      7.35603      3.74870
      7.39460      3.75772
      7.43335      3.76695
      7.47227      3.77659
      7.51138      3.78689
      7.55067      3.79760
      7.59014      3.80828
      7.62979      3.81869
      7.66962      3.82879
      7.70964      3.83887
      7.74984      3.84927
      7.79023      3.85996
      7.83080      3.87053
      7.87156      3.88067
      7.91251      3.89021
      7.95365      3.89904
      7.99498      3.90730
      8.03649      3.91531
      8.07821      3.92312
      8.12011      3.93084
      8.16220      3.93898
      8.20450      3.94776
      8.24698      3.95745
      8.28966      3.96812
      8.33254      3.97957
      8.37562      3.99134
      8.41890      4.00333
      8.46237      4.01558
      8.50605      4.02802
      8.54993      4.04078
      8.59401      4.05389
      8.63829      4.06694
      8.68278      4.07955
      8.72747      4.09174
      8.77237      4.10326
      8.81748      4.11400
      8.86279      4.12398
      8.90832      4.13302
      8.95405      4.14093
      9.00000      4.14823
      9.04616      4.15541
      9.09253      4.16281
      9.13911      4.17078
      9.18591      4.17961
      9.23293      4.18929
      9.28016      4.19991
      9.32762      4.21183
      9.37529      4.22496
      9.42317      4.23922
      9.47128      4.25474
      9.51962      4.27126
      9.56818      4.28835
      9.61696      4.30603
      9.66596      4.32386
      9.71519      4.34105
      9.76465      4.35683
      9.81434      4.37066
      9.86426      4.38275
      9.91440      4.39389
      9.96478      4.40475
      10.0154      4.41537
      10.0662      4.42566
      10.1173      4.43564
      10.1686      4.44555
      10.2202      4.45565
      10.2720      4.46626
      10.3240      4.47763
      10.3763      4.48976
      10.4288      4.50266
      10.4815      4.51610
      10.5345      4.52986
      10.5878      4.54368
      10.6413      4.55752
      10.6950      4.57134
      10.7490      4.58518
      10.8032      4.59908
      10.8577      4.61319
      10.9124      4.62759
      10.9674      4.64248
      11.0226      4.65800
      11.0781      4.67421
      11.1339      4.69120
      11.1899      4.70889
      11.2462      4.72715
      11.3027      4.74584
      11.3595      4.76488
      11.4165      4.78414
      11.4738      4.80351
      11.5314      4.82285
      11.5893      4.84207
      11.6474      4.86107
      11.7057      4.87994
      11.7644      4.89877
      11.8233      4.91770
      11.8825      4.93701
      11.9420      4.95691
      12.0017      4.97753
      12.0617      4.99903
      12.1220      5.02153
      12.1826      5.04506
      12.2434      5.06964
      12.3045      5.09526
      12.3660      5.12178
      12.4277      5.14904
      12.4896      5.17694
      12.5519      5.20519
      12.6144      5.23338
      12.6773      5.26130
      12.7404      5.28870
      12.8038      5.31535
      12.8676      5.34110
      12.9316      5.36574
      12.9959      5.38895
      13.0605      5.41067
      13.1254      5.43093
      13.1906      5.44991
      13.2561      5.46806
      13.3219      5.48603
      13.3880      5.50435
      13.4544      5.52345
      13.5211      5.54363
      13.5881      5.56497
      13.6555      5.58740
      13.7231      5.61084
      13.7911      5.63509
      13.8594      5.65997
      13.9279      5.68527
      13.9968      5.71059
      14.0661      5.73533
      14.1356      5.75892
      14.2055      5.78091
      14.2757      5.80110
      14.3462      5.81951
      14.4170      5.83631
      14.4882      5.85169
      14.5597      5.86574
      14.6315      5.87860
      14.7036      5.89042
      14.7761      5.90140
      14.8489      5.91193
      14.9221      5.92227
      14.9956      5.93263
      15.0694      5.94310
      15.1436      5.95373
      15.2181      5.96453
      15.2930      5.97551
      15.3682      5.98667
      15.4437      5.99801
      15.5196      6.00959
      15.5959      6.02141
      15.6725      6.03344
      15.7494      6.04554
      15.8267      6.05770
      15.9044      6.06986
      15.9824      6.08207
      16.0608      6.09429
      16.1396      6.10650
      16.2187      6.11868
      16.2982      6.13092
      16.3780      6.14327
      16.4582      6.15576
      16.5388      6.16843
      16.6198      6.18123
      16.7011      6.19417
      16.7828      6.20716
      16.8649      6.22016
      16.9473      6.23305
      17.0302      6.24581
      17.1134      6.25838
      17.1970      6.27086
      17.2810      6.28330
      17.3654      6.29588
      17.4502      6.30867
      17.5353      6.32181
      17.6209      6.33536
      17.7068      6.34937
      17.7932      6.36385
      17.8799      6.37872
      17.9671      6.39386
      18.0546      6.40908
      18.1426      6.42424
      18.2309      6.43913
      18.3197      6.45366
      18.4089      6.46760
      18.4984      6.48093
      18.5884      6.49372
      18.6789      6.50619
      18.7697      6.51866
      18.8609      6.53142
      18.9526      6.54466
      19.0447      6.55832
      19.1372      6.57229
      19.2302      6.58644
      19.3236      6.60066
      19.4174      6.61482
      19.5116      6.62895
      19.6063      6.64293
      19.7014      6.65666
      19.7970      6.66992
      19.8930      6.68248
      19.9894      6.69419
      20.0863      6.70508
      20.1836      6.71541
      20.2814      6.72541
      20.3796      6.73520
      20.4783      6.74483
      20.5774      6.75430
      20.6770      6.76363
      20.7771      6.77284
      20.8776      6.78198
      20.9786      6.79106
      21.0800      6.80011
      21.1820      6.80914
      21.2844      6.81818
      21.3872      6.82724
      21.4905      6.83634
      21.5944      6.84551
      21.6986      6.85475
      21.8034      6.86408
      21.9087      6.87349
      22.0144      6.88299
      22.1206      6.89259
      22.2274      6.90229
      22.3346      6.91209
      22.4423      6.92198
      22.5505      6.93197
      22.6592      6.94206
      22.7684      6.95224
      22.8781      6.96252
      22.9883      6.97290
      23.0991      6.98339
      23.2103      6.99399
      23.3220      7.00469
      23.4343      7.01551
      23.5471      7.02644
      23.6604      7.03749
      23.7742      7.04865
      23.8886      7.05993
      24.0035      7.07133
      24.1189      7.08284
      24.2348      7.09448
      24.3513      7.10623
      24.4683      7.11811
      24.5859      7.13010
      24.7040      7.14222
      24.8226      7.15446
      24.9418      7.16682
      25.0615      7.17931
      25.1818      7.19191
      25.3027      7.20464
      25.4241      7.21750
      25.5461      7.23048
      25.6686      7.24359
      25.7917      7.25683
      25.9153      7.27019
      26.0396      7.28368
      26.1644      7.29730
      26.2898      7.31104
      26.4157      7.32492
      26.5423      7.33893
      26.6694      7.35307
      26.7971      7.36734
      26.9254      7.38175
      27.0543      7.39628
      27.1838      7.41095
      27.3139      7.42576
      27.4446      7.44070
      27.5759      7.45577
      27.7078      7.47098
      27.8403      7.48633
      27.9734      7.50181
      28.1072      7.51744
      28.2415      7.53319
      28.3765      7.54909
      28.5121      7.56513
      28.6483      7.58131
      28.7852      7.59763
      28.9226      7.61409
      29.0608      7.63069
      29.1995      7.64744
      29.3389      7.66432
      29.4789      7.68136
      29.6196      7.69853
      29.7610      7.71585
      29.9030      7.73332
      30.0456      7.75094
      30.1889      7.76870
      30.3329      7.78661
      30.4775      7.80467
      30.6228      7.82287
      30.7687      7.84123
      30.9154      7.85974
      31.0627      7.87840
      31.2107      7.89721
      31.3594      7.91617
      31.5087      7.93529
      31.6588      7.95456
      31.8095      7.97398
      31.9610      7.99356
      32.1131      8.01330
      32.2660      8.03318
      32.4195      8.05323
      32.5738      8.07343
      32.7287      8.09378
      32.8844      8.11430
      33.0408      8.13498
      33.1979      8.15582
      33.3558      8.17681
      33.5144      8.19797
      33.6737      8.21929
      33.8337      8.24077
      33.9945      8.26242
      34.1560      8.28423
      34.3183      8.30620
      34.4813      8.32834
      34.6451      8.35065
      34.8096      8.37312
      34.9749      8.39577
      35.1410      8.41858
      35.3078      8.44156
      35.4754      8.46471
      35.6438      8.48803
      35.8129      8.51153
      35.9828      8.53520
      36.1535      8.55905
      36.3250      8.58307
      36.4973      8.60725
      36.6704      8.63162
      36.8443      8.65616
      37.0189      8.68089
      37.1944      8.70579
      37.3707      8.73086
      37.5478      8.75611
      37.7258      8.78154
      37.9045      8.80714
      38.0841      8.83292
      38.2645      8.85889
      38.4457      8.88504
      38.6278      8.91137
      38.8107      8.93789
      38.9945      8.96459
      39.1791      8.99147
      39.3645      9.01855
      39.5509      9.04581
      39.7380      9.07326
      39.9261      9.10090
      40.1150      9.12871
      40.3048      9.15671
      40.4954      9.18491
      40.6869      9.21328
      40.8794      9.24185
      41.0727      9.27062
      41.2669      9.29958
      41.4620      9.32873
      41.6580      9.35808
      41.8549      9.38761
      42.0527      9.41733
      42.2514      9.44726
      42.4510      9.47738
      42.6516      9.50770
      42.8531      9.53824
      43.0555      9.56900
      43.2588      9.59999
      43.4631      9.63122
      43.6684      9.66268
      43.8745      9.69438
      44.0817      9.72632
      44.2898      9.75850
      44.4988      9.79093
      44.7088      9.82364
      44.9198      9.85664
      45.1318      9.88993
      45.3447      9.92352
      45.5586      9.95743
      45.7735      9.99170
      45.9894      10.0264
      46.2063      10.0614
      46.4242      10.0968
      46.6431      10.1327
      46.8630      10.1689
      47.0839      10.2057
      47.3059      10.2429
      47.5289      10.2806
      47.7528      10.3190
      47.9779      10.3579
      48.2040      10.3974
      48.4311      10.4377
      48.6592      10.4786
      48.8884      10.5202
      49.1187      10.5627
      49.3501      10.6060
      49.5825      10.6502
      49.8159      10.6955
      50.0505      10.7419
      50.2861      10.7896
      50.5229      10.8385
      50.7607      10.8889
      50.9996      10.9408
      51.2396      10.9945
      51.4808      11.0501
      51.7230      11.1078
      51.9663      11.1678
      52.2108      11.2305
      52.4564      11.2960
      52.7032      11.3648
      52.9511      11.4373
      53.2001      11.5141
      53.4503      11.5957
      53.7016      11.6830
      53.9541      11.7768
      54.2077      11.8785
      54.4626      11.9897
      54.7186      12.1124
      54.9758      12.2496
      55.2341      12.4054
      55.4937      12.5860
      55.7545      12.8014
      56.0164      13.0685
      56.2796      13.4215
      56.5440      13.9449
      56.8096      14.9870
      57.0765         -NaN
      57.3445         -NaN
      57.6138         -NaN
      57.8844         -NaN
      58.1562         -NaN
      58.4292         -NaN
      58.7035         -NaN
      58.9791         -NaN
      59.2560         -NaN
      59.5341         -NaN
      59.8135         -NaN
      60.0942         -NaN
      60.3762         -NaN
      60.6595         -NaN
      60.9441         -NaN
      61.2300         -NaN
      61.5173         -NaN
      61.8058         -NaN
      62.0957         -NaN
      62.3870         -NaN
      62.6796         -NaN
      62.9735         -NaN
      63.2688         -NaN
      63.5654         -NaN
      63.8634         -NaN
      64.1628         -NaN
      64.4636         -NaN
      64.7658         -NaN
      65.0694         -NaN
      65.3743         -NaN
      65.6807         -NaN
      65.9885         -NaN
      66.2977         -NaN
      66.6083         -NaN
      66.9204         -NaN
      67.2339         -NaN
      67.5488         -NaN
      67.8652         -NaN
      68.1831         -NaN
      68.5024         -NaN
      68.8232         -NaN
      69.1455         -NaN
      69.4693         -NaN
      69.7946         -NaN
      70.1214         -NaN
      70.4496         -NaN
      70.7794         -NaN
      71.1108         -NaN
      71.4436         -NaN
      71.7780         -NaN
      72.1139         -NaN
      72.4514         -NaN
      72.7904         -NaN
      73.1310         -NaN
      73.4732         -NaN
      73.8169         -NaN
      74.1623         -NaN
      74.5092         -NaN
      74.8578         -NaN
      75.2079         -NaN
      75.5597         -NaN
      75.9130         -NaN
      76.2681         -NaN
      76.6247         -NaN
      76.9830         -NaN
      77.3430         -NaN
      77.7046         -NaN
      78.0679         -NaN
      78.4328         -NaN
      78.7995         -NaN
      79.1678         -NaN
      79.5378         -NaN
      79.9096         -NaN
      80.2830         -NaN
      80.6582         -NaN
      81.0352         -NaN
      81.4138         -NaN
      81.7942         -NaN
      82.1764         -NaN
      82.5603         -NaN
      82.9460         -NaN
      83.3335         -NaN
      83.7227         -NaN
      84.1138         -NaN
      84.5067         -NaN
      84.9014         -NaN
      85.2979         -NaN
      85.6962         -NaN
      86.0964         -NaN
      86.4984         -NaN
      86.9023         -NaN
      87.3080         -NaN
      87.7156         -NaN
      88.1251         -NaN
      88.5365         -NaN
      88.9498         -NaN
      89.3649         -NaN
      89.7820         -NaN
      90.2011         -NaN
      90.6221         -NaN
      91.0450         -NaN
      91.4698         -NaN
      91.8967         -NaN
      92.3254         -NaN
      92.7562         -NaN
      93.1890         -NaN
      93.6237         -NaN
      94.0605         -NaN
      94.4993         -NaN
      94.9401         -NaN
      95.3829         -NaN
      95.8278         -NaN
      96.2747         -NaN
      96.7237         -NaN
      97.1748         -NaN
      97.6279         -NaN
      98.0832         -NaN
      98.5406         -NaN

----------------------------------------------------------------------
SPECTRUM: CWW_Im_ext
FILTER:        SDSS g + CCD, [MT]  no atmosphere (Ref. F. Castander)
----------------------------------------------------------------------
      0.00000      0.00000
   0.00461578 -0.000834820
   0.00925291  -0.00161979
    0.0139114  -0.00248161
    0.0185914  -0.00292270
    0.0232930  -0.00314374
    0.0280163  -0.00337008
    0.0327615  -0.00341435
    0.0375284  -0.00344356
    0.0423174  -0.00367782
    0.0471286  -0.00395370
    0.0519619  -0.00370594
    0.0568175  -0.00375867
    0.0616956  -0.00385284
    0.0665962  -0.00378939
    0.0715193  -0.00338377
    0.0764652  -0.00229190
    0.0814340  0.000628071
    0.0864257   0.00572509
    0.0914403    0.0129940
    0.0964782    0.0218998
     0.101539    0.0313144
     0.106624    0.0401580
     0.111732    0.0480412
     0.116863    0.0554355
     0.122018    0.0625378
     0.127198    0.0694231
     0.132400    0.0762320
     0.137627    0.0827742
     0.142878    0.0889630
     0.148154    0.0947303
     0.153453     0.100183
     0.158777     0.105177
     0.164126     0.109991
     0.169499     0.115097
     0.174898     0.120522
     0.180321     0.125987
     0.185769     0.131625
     0.191242     0.137356
     0.196741     0.143013
     0.202264     0.148845
     0.207814     0.154930
     0.213389     0.161064
     0.218990     0.167277
     0.224616     0.173722
     0.230269     0.180045
     0.235947     0.186252
     0.241652     0.192562
     0.247383     0.198987
     0.253141     0.205421
     0.258925     0.212187
     0.264736     0.218899
     0.270574     0.225289
     0.276439     0.231615
     0.282331     0.238064
     0.288249     0.244606
     0.294196     0.251446
     0.300170     0.258573
     0.306171     0.265597
     0.312200     0.272618
     0.318257     0.279700
     0.324342     0.286783
     0.330454     0.293930
     0.336596     0.301568
     0.342765     0.309349
     0.348963     0.317079
     0.355189     0.324839
     0.361445     0.332541
     0.367729     0.339913
     0.374042     0.347150
     0.380384     0.354206
     0.386756     0.360735
     0.393157     0.367088
     0.399587     0.373454
     0.406048     0.379903
     0.412538     0.386531
     0.419057     0.393487
     0.425608     0.400104
     0.432188     0.406113
     0.438799     0.411818
     0.445440     0.417675
     0.452112     0.424449
     0.458814     0.433152
     0.465548     0.443452
     0.472312     0.454189
     0.479108     0.464185
     0.485936     0.472494
     0.492794     0.478687
     0.499685     0.482885
     0.506607     0.485543
     0.513561     0.487149
     0.520548     0.488088
     0.527566     0.488610
     0.534617     0.488876
     0.541700     0.489024
     0.548817     0.489140
     0.555966     0.489291
     0.563148     0.489500
     0.570363     0.489730
     0.577611     0.489900
     0.584893     0.489968
     0.592209     0.489910
     0.599558     0.489718
     0.606941     0.489403
     0.614359     0.488974
     0.621810     0.488432
     0.629296     0.487779
     0.636817     0.487010
     0.644372     0.486122
     0.651962     0.485118
     0.659587     0.484000
     0.667247     0.482772
     0.674943     0.481438
     0.682674     0.480001
     0.690441     0.478469
     0.698244     0.476844
     0.706082     0.475129
     0.713957     0.473326
     0.721869     0.471438
     0.729816     0.469468
     0.737801     0.467418
     0.745822     0.465293
     0.753881     0.463097
     0.761976     0.460834
     0.770109     0.458508
     0.778279     0.456121
     0.786488     0.453676
     0.794734     0.451176
     0.803018     0.448621
     0.811340     0.446015
     0.819701     0.443362
     0.828100     0.440664
     0.836538     0.437923
     0.845015     0.435145
     0.853532     0.432330
     0.862087     0.429481
     0.870682     0.426599
     0.879317     0.423685
     0.887991     0.420742
     0.896706     0.417773
     0.905461     0.414779
     0.914256     0.411764
     0.923092     0.408729
     0.931968     0.405676
     0.940886     0.402605
     0.949845     0.399519
     0.958845     0.396419
     0.967886     0.393307
     0.976970     0.390187
     0.986095     0.387059
     0.995262     0.383925
      1.00447     0.380787
      1.01372     0.377646
      1.02302     0.374505
      1.03236     0.371366
      1.04174     0.368232
      1.05116     0.365107
      1.06063     0.361994
      1.07014     0.358893
      1.07970     0.355809
      1.08930     0.352743
      1.09894     0.349696
      1.10863     0.346672
      1.11836     0.343672
      1.12814     0.340701
      1.13796     0.337758
      1.14783     0.334846
      1.15774     0.331968
      1.16770     0.329123
      1.17771     0.326317
      1.18776     0.323549
      1.19786     0.320823
      1.20800     0.318141
      1.21820     0.315505
      1.22844     0.312917
      1.23872     0.310379
      1.24905     0.307892
      1.25944     0.305457
      1.26986     0.303076
      1.28034     0.300749
      1.29087     0.298479
      1.30144     0.296269
      1.31206     0.294116
      1.32274     0.292023
      1.33346     0.289991
      1.34423     0.288020
      1.35505     0.286110
      1.36592     0.284265
      1.37684     0.282481
      1.38781     0.280759
      1.39883     0.279099
      1.40991     0.277500
      1.42103     0.275965
      1.43220     0.274494
      1.44343     0.273087
      1.45471     0.271743
      1.46604     0.270464
      1.47742     0.269251
      1.48886     0.268103
      1.50035     0.267024
      1.51189     0.266012
      1.52348     0.265068
      1.53513     0.264191
      1.54683     0.263384
      1.55859     0.262647
      1.57040     0.261980
      1.58226     0.261385
      1.59418     0.260860
      1.60615     0.260406
      1.61818     0.260022
      1.63027     0.259708
      1.64241     0.259463
      1.65461     0.259280
      1.66686     0.259145
      1.67917     0.259039
      1.69153     0.258941
      1.70396     0.258857
      1.71644     0.258797
      1.72898     0.258766
      1.74157     0.258764
      1.75423     0.258789
      1.76694     0.258859
      1.77971     0.259025
      1.79254     0.259258
      1.80543     0.259485
      1.81838     0.259674
      1.83139     0.259855
      1.84446     0.260047
      1.85759     0.260259
      1.87078     0.260370
      1.88403     0.260287
      1.89734     0.260116
      1.91072     0.259895
      1.92415     0.259566
      1.93765     0.259027
      1.95121     0.258286
      1.96483     0.257316
      1.97852     0.256243
      1.99226     0.255088
      2.00608     0.253808
      2.01995     0.252333
      2.03389     0.250739
      2.04789     0.248978
      2.06196     0.247120
      2.07610     0.245411
      2.09030     0.243772
      2.10456     0.242092
      2.11889     0.240291
      2.13329     0.238391
      2.14775     0.236472
      2.16228     0.234791
      2.17687     0.233207
      2.19154     0.231758
      2.20627     0.230504
      2.22107     0.229672
      2.23594     0.229170
      2.25087     0.228960
      2.26588     0.228860
      2.28095     0.228801
      2.29610     0.228925
      2.31131     0.229446
      2.32660     0.230277
      2.34195     0.231171
      2.35738     0.231908
      2.37287     0.232108
      2.38844     0.232125
      2.40408     0.232114
      2.41979     0.232007
      2.43558     0.231531
      2.45144     0.230794
      2.46737     0.229779
      2.48337     0.228473
      2.49945     0.226672
      2.51560     0.224497
      2.53183     0.222213
      2.54813     0.220054
      2.56451     0.218067
      2.58096     0.215771
      2.59749     0.213426
      2.61410     0.211015
      2.63078     0.208523
      2.64754     0.205915
      2.66438     0.203514
      2.68129     0.201066
      2.69828     0.198582
      2.71535     0.195771
      2.73250     0.192920
      2.74973     0.190302
      2.76704     0.188254
      2.78443     0.186561
      2.80189     0.184774
      2.81944     0.183131
      2.83707     0.181842
      2.85478     0.180579
      2.87258     0.179016
      2.89045     0.177354
      2.90841     0.175343
      2.92645     0.173722
      2.94457     0.172891
      2.96278     0.173183
      2.98107     0.174293
      2.99945     0.176319
      3.01791     0.178875
      3.03645     0.182018
      3.05509     0.185778
      3.07380     0.190330
      3.09261     0.194950
      3.11150     0.199428
      3.13048     0.203919
      3.14954     0.208472
      3.16869     0.213778
      3.18794     0.219657
      3.20727     0.225790
      3.22669     0.231889
      3.24620     0.238748
      3.26580     0.246549
      3.28549     0.255401
      3.30527     0.264734
      3.32514     0.274890
      3.34510     0.285459
      3.36516     0.296584
      3.38531     0.308396
      3.40555     0.321127
      3.42588     0.334715
      3.44631     0.348508
      3.46684     0.361259
      3.48745     0.372050
      3.50817     0.381497
      3.52898     0.390526
      3.54988     0.400437
      3.57088     0.410958
      3.59198     0.422933
      3.61318     0.435732
      3.63447     0.449358
      3.65586     0.463552
      3.67735     0.478819
      3.69894     0.495299
      3.72063     0.513604
      3.74242     0.533184
      3.76431     0.553580
      3.78630     0.574872
      3.80839     0.597105
      3.83059     0.620153
      3.85288     0.642856
      3.87529     0.665840
      3.89779     0.688984
      3.92039     0.713389
      3.94311     0.739512
      3.96592     0.767539
      3.98884     0.796303
      4.01187     0.826052
      4.03501     0.855831
      4.05825     0.885708
      4.08159     0.916452
      4.10505     0.948771
      4.12861     0.982400
      4.15229      1.01699
      4.17607      1.05390
      4.19996      1.09352
      4.22396      1.13573
      4.24808      1.17932
      4.27230      1.22253
      4.29663      1.26213
      4.32108      1.29943
      4.34564      1.33560
      4.37032      1.37306
      4.39511      1.41365
      4.42001      1.45827
      4.44503      1.50571
      4.47016      1.55419
      4.49541      1.60254
      4.52077      1.65025
      4.54626      1.69679
      4.57186      1.74141
      4.59758      1.78423
      4.62341      1.82525
      4.64937      1.87039
      4.67545      1.92361
      4.70164      1.98564
      4.72796      2.05456
      4.75440      2.12801
      4.78096      2.20327
      4.80764      2.27803
      4.83445      2.34974
      4.86138      2.41613
      4.88844      2.47465
      4.91562      2.52430
      4.94292      2.56392
      4.97035      2.59346
      4.99791      2.61383
      5.02560      2.62742
      5.05341      2.63664
      5.08135      2.64349
      5.10942      2.64897
      5.13762      2.65359
      5.16595      2.65763
      5.19441      2.66118
      5.22300      2.66442
      5.25173      2.66750
      5.28058      2.67074
      5.30957      2.67397
      5.33870      2.67724
      5.36796      2.68028
      5.39735      2.68326
      5.42688      2.68621
      5.45654      2.68933
      5.48634      2.69230
      5.51628      2.69491
      5.54636      2.69708
      5.57658      2.69920
      5.60693      2.70171
      5.63743      2.70478
      5.66807      2.70845
      5.69885      2.71242
      5.72977      2.71646
      5.76083      2.72041
      5.79204      2.72444
      5.82339      2.72839
      5.85488      2.73239
      5.88652      2.73624
      5.91831      2.73985
      5.95024      2.74298
      5.98232      2.74602
      6.01455      2.74915
      6.04693      2.75257
      6.07946      2.75632
      6.11213      2.76018
      6.14496      2.76394
      6.17794      2.76788
      6.21107      2.77246
      6.24436      2.77758
      6.27780      2.78331
      6.31139      2.78945
      6.34514      2.79584
      6.37904      2.80244
      6.41310      2.80954
      6.44732      2.81690
      6.48170      2.82438
      6.51623      2.83195
      6.55092      2.83942
      6.58578      2.84655
      6.62079      2.85346
      6.65597      2.86009
      6.69130      2.86605
      6.72681      2.87142
      6.76247      2.87623
      6.79830      2.88082
      6.83430      2.88570
      6.87046      2.89132
      6.90679      2.89740
      6.94328      2.90376
      6.97995      2.91039
      7.01678      2.91752
      7.05378      2.92534
      7.09096      2.93382
      7.12831      2.94285
      7.16582      2.95229
      7.20352      2.96206
      7.24138      2.97196
      7.27942      2.98175
      7.31764      2.99122
      7.35603      3.00049
      7.39460      3.00977
      7.43335      3.01927
      7.47227      3.02920
      7.51138      3.03980
      7.55067      3.05082
      7.59014      3.06180
      7.62979      3.07251
      7.66962      3.08291
      7.70964      3.09330
      7.74984      3.10402
      7.79023      3.11504
      7.83080      3.12594
      7.87156      3.13641
      7.91251      3.14626
      7.95365      3.15538
      7.99498      3.16392
      8.03649      3.17220
      8.07821      3.18028
      8.12011      3.18827
      8.16220      3.19668
      8.20450      3.20576
      8.24698      3.21576
      8.28966      3.22678
      8.33254      3.23861
      8.37562      3.25076
      8.41890      3.26314
      8.46237      3.27580
      8.50605      3.28865
      8.54993      3.30183
      8.59401      3.31539
      8.63829      3.32889
      8.68278      3.34193
      8.72747      3.35456
      8.77237      3.36649
      8.81748      3.37762
      8.86279      3.38797
      8.90832      3.39735
      8.95405      3.40555
      9.00000      3.41314
      9.04616      3.42060
      9.09253      3.42828
      9.13911      3.43656
      9.18591      3.44572
      9.23293      3.45576
      9.28016      3.46678
      9.32762      3.47914
      9.37529      3.49276
      9.42317      3.50755
      9.47128      3.52365
      9.51962      3.54080
      9.56818      3.55854
      9.61696      3.57689
      9.66596      3.59542
      9.71519      3.61329
      9.76465      3.62969
      9.81434      3.64407
      9.86426      3.65665
      9.91440      3.66823
      9.96478      3.67953
      10.0154      3.69058
      10.0662      3.70128
      10.1173      3.71166
      10.1686      3.72198
      10.2202      3.73248
      10.2720      3.74353
      10.3240      3.75536
      10.3763      3.76801
      10.4288      3.78145
      10.4815      3.79546
      10.5345      3.80980
      10.5878      3.82422
      10.6413      3.83866
      10.6950      3.85308
      10.7490      3.86753
      10.8032      3.88204
      10.8577      3.89678
      10.9124      3.91183
      10.9674      3.92739
      11.0226      3.94363
      11.0781      3.96060
      11.1339      3.97839
      11.1899      3.99694
      11.2462      4.01610
      11.3027      4.03572
      11.3595      4.05572
      11.4165      4.07597
      11.4738      4.09634
      11.5314      4.11670
      11.5893      4.13692
      11.6474      4.15694
      11.7057      4.17683
      11.7644      4.19668
      11.8233      4.21665
      11.8825      4.23704
      11.9420      4.25807
      12.0017      4.27989
      12.0617      4.30266
      12.1220      4.32653
      12.1826      4.35151
      12.2434      4.37765
      12.3045      4.40494
      12.3660      4.43323
      12.4277      4.46234
      12.4896      4.49220
      12.5519      4.52246
      12.6144      4.55271
      12.6773      4.58271
      12.7404      4.61219
      12.8038      4.64090
      12.8676      4.66866
      12.9316      4.69523
      12.9959      4.72027
      13.0605      4.74371
      13.1254      4.76555
      13.1906      4.78601
      13.2561      4.80555
      13.3219      4.82490
      13.3880      4.84466
      13.4544      4.86529
      13.5211      4.88712
      13.5881      4.91027
      13.6555      4.93465
      13.7231      4.96018
      13.7911      4.98664
      13.8594      5.01385
      13.9279      5.04156
      13.9968      5.06934
      14.0661      5.09649
      14.1356      5.12239
      14.2055      5.14649
      14.2757      5.16858
      14.3462      5.18866
      14.4170      5.20693
      14.4882      5.22357
      14.5597      5.23870
      14.6315      5.25246
      14.7036      5.26503
      14.7761      5.27664
      14.8489      5.28770
      14.9221      5.29855
      14.9956      5.30939
      15.0694      5.32036
      15.1436      5.33150
      15.2181      5.34282
      15.2930      5.35433
      15.3682      5.36603
      15.4437      5.37793
      15.5196      5.39009
      15.5959      5.40251
      15.6725      5.41517
      15.7494      5.42789
      15.8267      5.44067
      15.9044      5.45344
      15.9824      5.46625
      16.0608      5.47906
      16.1396      5.49186
      16.2187      5.50461
      16.2982      5.51741
      16.3780      5.53034
      16.4582      5.54340
      16.5388      5.55666
      16.6198      5.57006
      16.7011      5.58361
      16.7828      5.59720
      16.8649      5.61079
      16.9473      5.62423
      17.0302      5.63750
      17.1134      5.65054
      17.1970      5.66346
      17.2810      5.67631
      17.3654      5.68930
      17.4502      5.70253
      17.5353      5.71614
      17.6209      5.73021
      17.7068      5.74479
      17.7932      5.75991
      17.8799      5.77545
      17.9671      5.79129
      18.0546      5.80723
      18.1426      5.82305
      18.2309      5.83857
      18.3197      5.85364
      18.4089      5.86801
      18.4984      5.88165
      18.5884      5.89463
      18.6789      5.90723
      18.7697      5.91981
      18.8609      5.93271
      18.9526      5.94614
      19.0447      5.96005
      19.1372      5.97431
      19.2302      5.98875
      19.3236      6.00326
      19.4174      6.01769
      19.5116      6.03205
      19.6063      6.04624
      19.7014      6.06009
      19.7970      6.07338
      19.8930      6.08584
      19.9894      6.09728
      20.0863      6.10774
      20.1836      6.11753
      20.2814      6.12693
      20.3796      6.13605
      20.4783      6.14497
      20.5774      6.15368
      20.6770      6.16221
      20.7771      6.17060
      20.8776      6.17887
      20.9786      6.18707
      21.0800      6.19522
      21.1820      6.20334
      21.2844      6.21145
      21.3872      6.21958
      21.4905      6.22774
      21.5944      6.23596
      21.6986      6.24426
      21.8034      6.25264
      21.9087      6.26111
      22.0144      6.26967
      22.1206      6.27833
      22.2274      6.28709
      22.3346      6.29594
      22.4423      6.30490
      22.5505      6.31395
      22.6592      6.32310
      22.7684      6.33234
      22.8781      6.34168
      22.9883      6.35113
      23.0991      6.36068
      23.2103      6.37034
      23.3220      6.38012
      23.4343      6.39001
      23.5471      6.40002
      23.6604      6.41015
      23.7742      6.42039
      23.8886      6.43076
      24.0035      6.44125
      24.1189      6.45187
      24.2348      6.46260
      24.3513      6.47345
      24.4683      6.48443
      24.5859      6.49553
      24.7040      6.50675
      24.8226      6.51809
      24.9418      6.52956
      25.0615      6.54116
      25.1818      6.55289
      25.3027      6.56474
      25.4241      6.57672
      25.5461      6.58883
      25.6686      6.60108
      25.7917      6.61345
      25.9153      6.62596
      26.0396      6.63860
      26.1644      6.65137
      26.2898      6.66427
      26.4157      6.67731
      26.5423      6.69049
      26.6694      6.70379
      26.7971      6.71723
      26.9254      6.73081
      27.0543      6.74452
      27.1838      6.75837
      27.3139      6.77235
      27.4446      6.78647
      27.5759      6.80073
      27.7078      6.81513
      27.8403      6.82967
      27.9734      6.84436
      28.1072      6.85918
      28.2415      6.87414
      28.3765      6.88925
      28.5121      6.90450
      28.6483      6.91989
      28.7852      6.93543
      28.9226      6.95112
      29.0608      6.96695
      29.1995      6.98293
      29.3389      6.99906
      29.4789      7.01534
      29.6196      7.03176
      29.7610      7.04833
      29.9030      7.06504
      30.0456      7.08191
      30.1889      7.09892
      30.3329      7.11609
      30.4775      7.13340
      30.6228      7.15088
      30.7687      7.16850
      30.9154      7.18628
      31.0627      7.20422
      31.2107      7.22231
      31.3594      7.24056
      31.5087      7.25896
      31.6588      7.27752
      31.8095      7.29624
      31.9610      7.31512
      32.1131      7.33416
      32.2660      7.35335
      32.4195      7.37270
      32.5738      7.39222
      32.7287      7.41189
      32.8844      7.43173
      33.0408      7.45173
      33.1979      7.47190
      33.3558      7.49223
      33.5144      7.51272
      33.6737      7.53337
      33.8337      7.55420
      33.9945      7.57520
      34.1560      7.59636
      34.3183      7.61768
      34.4813      7.63918
      34.6451      7.66085
      34.8096      7.68269
      34.9749      7.70470
      35.1410      7.72688
      35.3078      7.74923
      35.4754      7.77176
      35.6438      7.79446
      35.8129      7.81734
      35.9828      7.84040
      36.1535      7.86364
      36.3250      7.88705
      36.4973      7.91063
      36.6704      7.93440
      36.8443      7.95835
      37.0189      7.98248
      37.1944      8.00679
      37.3707      8.03128
      37.5478      8.05595
      37.7258      8.08080
      37.9045      8.10582
      38.0841      8.13103
      38.2645      8.15643
      38.4457      8.18202
      38.6278      8.20779
      38.8107      8.23374
      38.9945      8.25988
      39.1791      8.28620
      39.3645      8.31272
      39.5509      8.33943
      39.7380      8.36633
      39.9261      8.39342
      40.1150      8.42069
      40.3048      8.44815
      40.4954      8.47581
      40.6869      8.50366
      40.8794      8.53169
      41.0727      8.55993
      41.2669      8.58837
      41.4620      8.61701
      41.6580      8.64583
      41.8549      8.67485
      42.0527      8.70407
      42.2514      8.73348
      42.4510      8.76311
      42.6516      8.79293
      42.8531      8.82297
      43.0555      8.85324
      43.2588      8.88374
      43.4631      8.91447
      43.6684      8.94545
      43.8745      8.97666
      44.0817      9.00812
      44.2898      9.03981
      44.4988      9.07177
      44.7088      9.10400
      44.9198      9.13652
      45.1318      9.16934
      45.3447      9.20246
      45.5586      9.23590
      45.7735      9.26970
      45.9894      9.30388
      46.2063      9.33844
      46.4242      9.37340
      46.6431      9.40877
      46.8630      9.44455
      47.0839      9.48080
      47.3059      9.51753
      47.5289      9.55479
      47.7528      9.59262
      47.9779      9.63104
      48.2040      9.67010
      48.4311      9.70980
      48.6592      9.75020
      48.8884      9.79132
      49.1187      9.83325
      49.3501      9.87603
      49.5825      9.91976
      49.8159      9.96450
      50.0505      10.0103
      50.2861      10.0574
      50.5229      10.1057
      50.7607      10.1554
      50.9996      10.2067
      51.2396      10.2596
      51.4808      10.3145
      51.7230      10.3713
      51.9663      10.4305
      52.2108      10.4921
      52.4564      10.5566
      52.7032      10.6243
      52.9511      10.6956
      53.2001      10.7709
      53.4503      10.8510
      53.7016      10.9365
      53.9541      11.0283
      54.2077      11.1275
      54.4626      11.2358
      54.7186      11.3550
      54.9758      11.4877
      55.2341      11.6378
      55.4937      11.8108
      55.7545      12.0153
      56.0164      12.2660
      56.2796      12.5905
      56.5440      13.0529
      56.8096      13.8705
      57.0765         -NaN
      57.3445         -NaN
      57.6138         -NaN
      57.8844         -NaN
      58.1562         -NaN
      58.4292         -NaN
      58.7035         -NaN
      58.9791         -NaN
      59.2560         -NaN
      59.5341         -NaN
      59.8135         -NaN
      60.0942         -NaN
      60.3762         -NaN
      60.6595         -NaN
      60.9441         -NaN
      61.2300         -NaN
      61.5173         -NaN
      61.8058         -NaN
      62.0957         -NaN
      62.3870         -NaN
      62.6796         -NaN
      62.9735         -NaN
      63.2688         -NaN
      63.5654         -NaN
      63.8634         -NaN
      64.1628         -NaN
      64.4636         -NaN
      64.7658         -NaN
      65.0694         -NaN
      65.3743         -NaN
      65.6807         -NaN
      65.9885         -NaN
      66.2977         -NaN
      66.6083         -NaN
      66.9204         -NaN
      67.2339         -NaN
      67.5488         -NaN
      67.8652         -NaN
      68.1831         -NaN
      68.5024         -NaN
      68.8232         -NaN
      69.1455         -NaN
      69.4693         -NaN
      69.7946         -NaN
      70.1214         -NaN
      70.4496         -NaN
      70.7794         -NaN
      71.1108         -NaN
      71.4436         -NaN
      71.7780         -NaN
      72.1139         -NaN
      72.4514         -NaN
      72.7904         -NaN
      73.1310         -NaN
      73.4732         -NaN
      73.8169         -NaN
      74.1623         -NaN
      74.5092         -NaN
      74.8578         -NaN
      75.2079         -NaN
      75.5597         -NaN
      75.9130         -NaN
      76.2681         -NaN
      76.6247         -NaN
      76.9830         -NaN
      77.3430         -NaN
      77.7046         -NaN
      78.0679         -NaN
      78.4328         -NaN
      78.7995         -NaN
      79.1678         -NaN
      79.5378         -NaN
      79.9096         -NaN
      80.2830         -NaN
      80.6582         -NaN
      81.0352         -NaN
      81.4138         -NaN
      81.7942         -NaN
      82.1764         -NaN
      82.5603         -NaN
      82.9460         -NaN
      83.3335         -NaN
      83.7227         -NaN
      84.1138         -NaN
      84.5067         -NaN
      84.9014         -NaN
      85.2979         -NaN
      85.6962         -NaN
      86.0964         -NaN
      86.4984         -NaN
      86.9023         -NaN
      87.3080         -NaN
      87.7156         -NaN
      88.1251         -NaN
      88.5365         -NaN
      88.9498         -NaN
      89.3649         -NaN
      89.7820         -NaN
      90.2011         -NaN
      90.6221         -NaN
      91.0450         -NaN
      91.4698         -NaN
      91.8967         -NaN
      92.3254         -NaN
      92.7562         -NaN
      93.1890         -NaN
      93.6237         -NaN
      94.0605         -NaN
      94.4993         -NaN
      94.9401         -NaN
      95.3829         -NaN
      95.8278         -NaN
      96.2747         -NaN
      96.7237         -NaN
      97.1748         -NaN
      97.6279         -NaN
      98.0832         -NaN
      98.5406         -NaN

