----------------------------------------------------------------------
SPECTRUM: CWW_E_ext
FILTER:        SDSS r + CCD, [MT]  no atmosphere (Ref. F. Castander)
----------------------------------------------------------------------
      0.00000      0.00000
   0.00461578   0.00508566
   0.00925291    0.0102411
    0.0139114    0.0154417
    0.0185914    0.0206576
    0.0232930    0.0259048
    0.0280163    0.0311892
    0.0327615    0.0365616
    0.0375284    0.0421277
    0.0423174    0.0479550
    0.0471286    0.0541237
    0.0519619    0.0606455
    0.0568175    0.0674733
    0.0616956    0.0745322
    0.0665962    0.0817667
    0.0715193    0.0890318
    0.0764652    0.0962403
    0.0814340     0.103322
    0.0864257     0.110275
    0.0914403     0.117087
    0.0964782     0.123837
     0.101539     0.130573
     0.106624     0.137347
     0.111732     0.144257
     0.116863     0.151389
     0.122018     0.158730
     0.127198     0.166258
     0.132400     0.173944
     0.137627     0.181662
     0.142878     0.189363
     0.148154     0.196979
     0.153453     0.204454
     0.158777     0.211714
     0.164126     0.218800
     0.169499     0.225702
     0.174898     0.232450
     0.180321     0.239147
     0.185769     0.245897
     0.191242     0.252733
     0.196741     0.259761
     0.202264     0.267075
     0.207814     0.274682
     0.213389     0.282611
     0.218990     0.290877
     0.224616     0.299465
     0.230269     0.308332
     0.235947     0.317579
     0.241652     0.327166
     0.247383     0.337080
     0.253141     0.347327
     0.258925     0.357901
     0.264736     0.368730
     0.270574     0.379899
     0.276439     0.391488
     0.282331     0.403542
     0.288249     0.416180
     0.294196     0.429419
     0.300170     0.443092
     0.306171     0.457000
     0.312200     0.470972
     0.318257     0.484739
     0.324342     0.498139
     0.330454     0.511124
     0.336596     0.523745
     0.342765     0.536152
     0.348963     0.548640
     0.355189     0.561407
     0.361445     0.574588
     0.367729     0.588370
     0.374042     0.602894
     0.380384     0.618345
     0.386756     0.634892
     0.393157     0.652666
     0.399587     0.671712
     0.406048     0.691983
     0.412538     0.713400
     0.419057     0.735931
     0.425608     0.759523
     0.432188     0.784174
     0.438799     0.809779
     0.445440     0.836221
     0.452112     0.863279
     0.458814     0.890736
     0.465548     0.918377
     0.472312     0.946042
     0.479108     0.973694
     0.485936      1.00140
     0.492794      1.02930
     0.499685      1.05751
     0.506607      1.08611
     0.513561      1.11511
     0.520548      1.14447
     0.527566      1.17421
     0.534617      1.20432
     0.541700      1.23473
     0.548817      1.26530
     0.555966      1.29581
     0.563148      1.32604
     0.570363      1.35587
     0.577611      1.38530
     0.584893      1.41436
     0.592209      1.44303
     0.599558      1.47130
     0.606941      1.49898
     0.614359      1.52610
     0.621810      1.55280
     0.629296      1.57932
     0.636817      1.60575
     0.644372      1.63217
     0.651962      1.65847
     0.659587      1.68465
     0.667247      1.71091
     0.674943      1.73763
     0.682674      1.76506
     0.690441      1.79339
     0.698244      1.82263
     0.706082      1.85242
     0.713957      1.88236
     0.721869      1.91172
     0.729816      1.93982
     0.737801      1.96592
     0.745822      1.98964
     0.753881      2.01066
     0.761976      2.02926
     0.770109      2.04586
     0.778279      2.06095
     0.786488      2.07501
     0.794734      2.08838
     0.803018      2.10138
     0.811340      2.11436
     0.819701      2.12788
     0.828100      2.14229
     0.836538      2.15796
     0.845015      2.17506
     0.853532      2.19373
     0.862087      2.21382
     0.870682      2.23524
     0.879317      2.25767
     0.887991      2.28072
     0.896706      2.30403
     0.905461      2.32718
     0.914256      2.34988
     0.923092      2.37202
     0.931968      2.39377
     0.940886      2.41544
     0.949845      2.43751
     0.958845      2.46027
     0.967886      2.48393
     0.976970      2.50852
     0.986095      2.53394
     0.995262      2.55999
      1.00447      2.58665
      1.01372      2.61390
      1.02302      2.64173
      1.03236      2.67015
      1.04174      2.69920
      1.05116      2.72898
      1.06063      2.75962
      1.07014      2.79133
      1.07970      2.82413
      1.08930      2.85807
      1.09894      2.89316
      1.10863      2.92940
      1.11836      2.96678
      1.12814      3.00554
      1.13796      3.04579
      1.14783      3.08760
      1.15774      3.13087
      1.16770      3.17532
      1.17771      3.22052
      1.18776      3.26599
      1.19786      3.31117
      1.20800      3.35560
      1.21820      3.39903
      1.22844      3.44135
      1.23872      3.48267
      1.24905      3.52340
      1.25944      3.56404
      1.26986      3.60504
      1.28034      3.64681
      1.29087      3.68955
      1.30144      3.73330
      1.31206      3.77801
      1.32274      3.82352
      1.33346      3.86951
      1.34423      3.91571
      1.35505      3.96187
      1.36592      4.00782
      1.37684      4.05346
      1.38781      4.09869
      1.39883      4.14338
      1.40991      4.18743
      1.42103      4.23065
      1.43220      4.27292
      1.44343      4.31407
      1.45471      4.35393
      1.46604      4.39235
      1.47742      4.42929
      1.48886      4.46477
      1.50035      4.49882
      1.51189      4.53147
      1.52348      4.56273
      1.53513      4.59254
      1.54683      4.62085
      1.55859      4.64755
      1.57040      4.67253
      1.58226      4.69578
      1.59418      4.71724
      1.60615      4.73686
      1.61818      4.75458
      1.63027      4.77035
      1.64241      4.78410
      1.65461      4.79595
      1.66686      4.80611
      1.67917      4.81486
      1.69153      4.82253
      1.70396      4.82931
      1.71644      4.83535
      1.72898      4.84072
      1.74157      4.84547
      1.75423      4.84964
      1.76694      4.85334
      1.77971      4.85670
      1.79254      4.85985
      1.80543      4.86290
      1.81838      4.86595
      1.83139      4.86903
      1.84446      4.87217
      1.85759      4.87540
      1.87078      4.87874
      1.88403      4.88225
      1.89734      4.88603
      1.91072      4.89019
      1.92415      4.89479
      1.93765      4.89988
      1.95121      4.90547
      1.96483      4.91158
      1.97852      4.91824
      1.99226      4.92544
      2.00608      4.93315
      2.01995      4.94137
      2.03389      4.95007
      2.04789      4.95924
      2.06196      4.96887
      2.07610      4.97897
      2.09030      4.98950
      2.10456      5.00046
      2.11889      5.01185
      2.13329      5.02362
      2.14775      5.03574
      2.16228      5.04811
      2.17687      5.06065
      2.19154      5.07327
      2.20627      5.08593
      2.22107      5.09859
      2.23594      5.11122
      2.25087      5.12381
      2.26588      5.13633
      2.28095      5.14876
      2.29610      5.16108
      2.31131      5.17327
      2.32660      5.18530
      2.34195      5.19713
      2.35738      5.20875
      2.37287      5.22014
      2.38844      5.23129
      2.40408      5.24217
      2.41979      5.25279
      2.43558      5.26311
      2.45144      5.27314
      2.46737      5.28287
      2.48337      5.29228
      2.49945      5.30136
      2.51560      5.31011
      2.53183      5.31851
      2.54813      5.32655
      2.56451      5.33424
      2.58096      5.34155
      2.59749      5.34849
      2.61410      5.35504
      2.63078      5.36123
      2.64754      5.36706
      2.66438      5.37258
      2.68129      5.37783
      2.69828      5.38283
      2.71535      5.38760
      2.73250      5.39212
      2.74973      5.39635
      2.76704      5.40027
      2.78443      5.40383
      2.80189      5.40699
      2.81944      5.40979
      2.83707      5.41229
      2.85478      5.41463
      2.87258      5.41692
      2.89045      5.41927
      2.90841      5.42168
      2.92645      5.42422
      2.94457      5.42675
      2.96278      5.42900
      2.98107      5.43075
      2.99945      5.43191
      3.01791      5.43251
      3.03645      5.43267
      3.05509      5.43238
      3.07380      5.43140
      3.09261      5.42992
      3.11150      5.42820
      3.13048      5.42637
      3.14954      5.42433
      3.16869      5.42209
      3.18794      5.41946
      3.20727      5.41662
      3.22669      5.41391
      3.24620      5.41116
      3.26580      5.40811
      3.28549      5.40470
      3.30527      5.40109
      3.32514      5.39739
      3.34510      5.39391
      3.36516      5.39036
      3.38531      5.38662
      3.40555      5.38266
      3.42588      5.37878
      3.44631      5.37496
      3.46684      5.37146
      3.48745      5.36844
      3.50817      5.36608
      3.52898      5.36445
      3.54988      5.36347
      3.57088      5.36265
      3.59198      5.36163
      3.61318      5.36049
      3.63447      5.35913
      3.65586      5.35769
      3.67735      5.35604
      3.69894      5.35413
      3.72063      5.35175
      3.74242      5.34907
      3.76431      5.34599
      3.78630      5.34270
      3.80839      5.33928
      3.83059      5.33579
      3.85288      5.33197
      3.87529      5.32777
      3.89779      5.32325
      3.92039      5.31795
      3.94311      5.31217
      3.96592      5.30617
      3.98884      5.30051
      4.01187      5.29571
      4.03501      5.29191
      4.05825      5.28838
      4.08159      5.28516
      4.10505      5.28223
      4.12861      5.27960
      4.15229      5.27709
      4.17607      5.27467
      4.19996      5.27205
      4.22396      5.26912
      4.24808      5.26619
      4.27230      5.26336
      4.29663      5.26053
      4.32108      5.25795
      4.34564      5.25597
      4.37032      5.25442
      4.39511      5.25351
      4.42001      5.25300
      4.44503      5.25264
      4.47016      5.25210
      4.49541      5.25171
      4.52077      5.25152
      4.54626      5.25167
      4.57186      5.25223
      4.59758      5.25326
      4.62341      5.25417
      4.64937      5.25453
      4.67545      5.25389
      4.70164      5.25175
      4.72796      5.24838
      4.75440      5.24447
      4.78096      5.24101
      4.80764      5.23817
      4.83445      5.23618
      4.86138      5.23480
      4.88844      5.23449
      4.91562      5.23557
      4.94292      5.23879
      4.97035      5.24368
      4.99791      5.25006
      5.02560      5.25782
      5.05341      5.26703
      5.08135      5.27718
      5.10942      5.28791
      5.13762      5.29895
      5.16595      5.31027
      5.19441      5.32239
      5.22300      5.33547
      5.25173      5.34941
      5.28058      5.36351
      5.30957      5.37811
      5.33870      5.39270
      5.36796      5.40717
      5.39735      5.42156
      5.42688      5.43636
      5.45654      5.45141
      5.48634      5.46710
      5.51628      5.48345
      5.54636      5.50059
      5.57658      5.51858
      5.60693      5.53735
      5.63743      5.55638
      5.66807      5.57429
      5.69885      5.59111
      5.72977      5.60671
      5.76083      5.62158
      5.79204      5.63657
      5.82339      5.65249
      5.85488      5.66893
      5.88652      5.68576
      5.91831      5.70234
      5.95024      5.71827
      5.98232      5.73332
      6.01455      5.74754
      6.04693      5.76075
      6.07946      5.77264
      6.11213      5.78431
      6.14496      5.79713
      6.17794      5.81196
      6.21107      5.82882
      6.24436      5.84698
      6.27780      5.86535
      6.31139      5.88316
      6.34514      5.89968
      6.37904      5.91431
      6.41310      5.92651
      6.44732      5.93602
      6.48170      5.94258
      6.51623      5.94631
      6.55092      5.94739
      6.58578      5.94630
      6.62079      5.94364
      6.65597      5.94008
      6.69130      5.93599
      6.72681      5.93175
      6.76247      5.92752
      6.79830      5.92333
      6.83430      5.91917
      6.87046      5.91506
      6.90679      5.91094
      6.94328      5.90682
      6.97995      5.90276
      7.01678      5.89872
      7.05378      5.89469
      7.09096      5.89061
      7.12831      5.88647
      7.16582      5.88220
      7.20352      5.87786
      7.24138      5.87340
      7.27942      5.86889
      7.31764      5.86442
      7.35603      5.86008
      7.39460      5.85596
      7.43335      5.85204
      7.47227      5.84821
      7.51138      5.84443
      7.55067      5.84072
      7.59014      5.83705
      7.62979      5.83344
      7.66962      5.82984
      7.70964      5.82621
      7.74984      5.82251
      7.79023      5.81882
      7.83080      5.81514
      7.87156      5.81156
      7.91251      5.80814
      7.95365      5.80490
      7.99498      5.80174
      8.03649      5.79870
      8.07821      5.79575
      8.12011      5.79291
      8.16220      5.79025
      8.20450      5.78773
      8.24698      5.78526
      8.28966      5.78279
      8.33254      5.78036
      8.37562      5.77790
      8.41890      5.77549
      8.46237      5.77311
      8.50605      5.77072
      8.54993      5.76827
      8.59401      5.76586
      8.63829      5.76346
      8.68278      5.76103
      8.72747      5.75855
      8.77237      5.75598
      8.81748      5.75333
      8.86279      5.75079
      8.90832      5.74853
      8.95405      5.74656
      9.00000      5.74490
      9.04616      5.74345
      9.09253      5.74212
      9.13911      5.74087
      9.18591      5.73974
      9.23293      5.73870
      9.28016      5.73776
      9.32762      5.73683
      9.37529      5.73583
      9.42317      5.73467
      9.47128      5.73333
      9.51962      5.73183
      9.56818      5.73022
      9.61696      5.72858
      9.66596      5.72699
      9.71519      5.72547
      9.76465      5.72407
      9.81434      5.72281
      9.86426      5.72169
      9.91440      5.72069
      9.96478      5.71979
      10.0154      5.71899
      10.0662      5.71829
      10.1173      5.71771
      10.1686      5.71728
      10.2202      5.71690
      10.2720      5.71647
      10.3240      5.71597
      10.3763      5.71541
      10.4288      5.71482
      10.4815      5.71425
      10.5345      5.71379
      10.5878      5.71349
      10.6413      5.71344
      10.6950      5.71370
      10.7490      5.71419
      10.8032      5.71479
      10.8577      5.71551
      10.9124      5.71633
      10.9674      5.71726
      11.0226      5.71829
      11.0781      5.71940
      11.1339      5.72048
      11.1899      5.72148
      11.2462      5.72240
      11.3027      5.72321
      11.3595      5.72390
      11.4165      5.72450
      11.4738      5.72495
      11.5314      5.72523
      11.5893      5.72541
      11.6474      5.72555
      11.7057      5.72570
      11.7644      5.72599
      11.8233      5.72645
      11.8825      5.72710
      11.9420      5.72796
      12.0017      5.72908
      12.0617      5.73043
      12.1220      5.73199
      12.1826      5.73377
      12.2434      5.73569
      12.3045      5.73771
      12.3660      5.73984
      12.4277      5.74205
      12.4896      5.74428
      12.5519      5.74647
      12.6144      5.74850
      12.6773      5.75033
      12.7404      5.75208
      12.8038      5.75387
      12.8676      5.75575
      12.9316      5.75773
      12.9959      5.75979
      13.0605      5.76195
      13.1254      5.76420
      13.1906      5.76660
      13.2561      5.76918
      13.3219      5.77196
      13.3880      5.77493
      13.4544      5.77806
      13.5211      5.78128
      13.5881      5.78454
      13.6555      5.78780
      13.7231      5.79104
      13.7911      5.79429
      13.8594      5.79754
      13.9279      5.80084
      13.9968      5.80421
      14.0661      5.80769
      14.1356      5.81132
      14.2055      5.81514
      14.2757      5.81920
      14.3462      5.82352
      14.4170      5.82808
      14.4882      5.83285
      14.5597      5.83783
      14.6315      5.84297
      14.7036      5.84827
      14.7761      5.85370
      14.8489      5.85923
      14.9221      5.86481
      14.9956      5.87044
      15.0694      5.87609
      15.1436      5.88177
      15.2181      5.88752
      15.2930      5.89338
      15.3682      5.89934
      15.4437      5.90544
      15.5196      5.91168
      15.5959      5.91806
      15.6725      5.92460
      15.7494      5.93129
      15.8267      5.93812
      15.9044      5.94508
      15.9824      5.95215
      16.0608      5.95931
      16.1396      5.96652
      16.2187      5.97376
      16.2982      5.98099
      16.3780      5.98819
      16.4582      5.99535
      16.5388      6.00244
      16.6198      6.00943
      16.7011      6.01633
      16.7828      6.02313
      16.8649      6.02982
      16.9473      6.03645
      17.0302      6.04305
      17.1134      6.04970
      17.1970      6.05646
      17.2810      6.06336
      17.3654      6.07042
      17.4502      6.07763
      17.5353      6.08500
      17.6209      6.09248
      17.7068      6.10006
      17.7932      6.10773
      17.8799      6.11544
      17.9671      6.12317
      18.0546      6.13088
      18.1426      6.13854
      18.2309      6.14614
      18.3197      6.15366
      18.4089      6.16112
      18.4984      6.16855
      18.5884      6.17598
      18.6789      6.18341
      18.7697      6.19087
      18.8609      6.19835
      18.9526      6.20585
      19.0447      6.21341
      19.1372      6.22103
      19.2302      6.22874
      19.3236      6.23655
      19.4174      6.24446
      19.5116      6.25248
      19.6063      6.26063
      19.7014      6.26890
      19.7970      6.27732
      19.8930      6.28589
      19.9894      6.29462
      20.0863      6.30352
      20.1836      6.31259
      20.2814      6.32181
      20.3796      6.33118
      20.4783      6.34068
      20.5774      6.35032
      20.6770      6.36010
      20.7771      6.37002
      20.8776      6.38008
      20.9786      6.39028
      21.0800      6.40062
      21.1820      6.41111
      21.2844      6.42174
      21.3872      6.43251
      21.4905      6.44342
      21.5944      6.45448
      21.6986      6.46567
      21.8034      6.47699
      21.9087      6.48843
      22.0144      6.49999
      22.1206      6.51169
      22.2274      6.52355
      22.3346      6.53558
      22.4423      6.54778
      22.5505      6.56016
      22.6592      6.57270
      22.7684      6.58542
      22.8781      6.59829
      22.9883      6.61131
      23.0991      6.62446
      23.2103      6.63770
      23.3220      6.65103
      23.4343      6.66442
      23.5471      6.67785
      23.6604      6.69131
      23.7742      6.70480
      23.8886      6.71836
      24.0035      6.73204
      24.1189      6.74588
      24.2348      6.75989
      24.3513      6.77408
      24.4683      6.78842
      24.5859      6.80290
      24.7040      6.81749
      24.8226      6.83219
      24.9418      6.84701
      25.0615      6.86191
      25.1818      6.87689
      25.3027      6.89190
      25.4241      6.90692
      25.5461      6.92192
      25.6686      6.93692
      25.7917      6.95195
      25.9153      6.96705
      26.0396      6.98223
      26.1644      6.99750
      26.2898      7.01284
      26.4157      7.02828
      26.5423      7.04380
      26.6694      7.05941
      26.7971      7.07511
      26.9254      7.09091
      27.0543      7.10681
      27.1838      7.12283
      27.3139      7.13895
      27.4446      7.15519
      27.5759      7.17156
      27.7078      7.18804
      27.8403      7.20466
      27.9734      7.22140
      28.1072      7.23827
      28.2415      7.25526
      28.3765      7.27239
      28.5121      7.28965
      28.6483      7.30704
      28.7852      7.32455
      28.9226      7.34220
      29.0608      7.35999
      29.1995      7.37790
      29.3389      7.39595
      29.4789      7.41413
      29.6196      7.43245
      29.7610      7.45090
      29.9030      7.46950
      30.0456      7.48823
      30.1889      7.50710
      30.3329      7.52612
      30.4775      7.54527
      30.6228      7.56456
      30.7687      7.58399
      30.9154      7.60358
      31.0627      7.62330
      31.2107      7.64317
      31.3594      7.66319
      31.5087      7.68335
      31.6588      7.70366
      31.8095      7.72411
      31.9610      7.74471
      32.1131      7.76546
      32.2660      7.78635
      32.4195      7.80739
      32.5738      7.82858
      32.7287      7.84992
      32.8844      7.87141
      33.0408      7.89305
      33.1979      7.91484
      33.3558      7.93678
      33.5144      7.95888
      33.6737      7.98112
      33.8337      8.00353
      33.9945      8.02608
      34.1560      8.04879
      34.3183      8.07166
      34.4813      8.09468
      34.6451      8.11786
      34.8096      8.14119
      34.9749      8.16467
      35.1410      8.18832
      35.3078      8.21214
      35.4754      8.23611
      35.6438      8.26025
      35.8129      8.28456
      35.9828      8.30902
      36.1535      8.33365
      36.3250      8.35844
      36.4973      8.38339
      36.6704      8.40849
      36.8443      8.43377
      37.0189      8.45920
      37.1944      8.48480
      37.3707      8.51057
      37.5478      8.53650
      37.7258      8.56260
      37.9045      8.58887
      38.0841      8.61531
      38.2645      8.64193
      38.4457      8.66872
      38.6278      8.69569
      38.8107      8.72283
      38.9945      8.75014
      39.1791      8.77762
      39.3645      8.80528
      39.5509      8.83311
      39.7380      8.86111
      39.9261      8.88930
      40.1150      8.91767
      40.3048      8.94623
      40.4954      8.97497
      40.6869      9.00389
      40.8794      9.03298
      41.0727      9.06227
      41.2669      9.09174
      41.4620      9.12139
      41.6580      9.15122
      41.8549      9.18123
      42.0527      9.21142
      42.2514      9.24181
      42.4510      9.27237
      42.6516      9.30313
      42.8531      9.33408
      43.0555      9.36523
      43.2588      9.39657
      43.4631      9.42809
      43.6684      9.45979
      43.8745      9.49168
      44.0817      9.52378
      44.2898      9.55607
      44.4988      9.58857
      44.7088      9.62126
      44.9198      9.65412
      45.1318      9.68720
      45.3447      9.72048
      45.5586      9.75397
      45.7735      9.78766
      45.9894      9.82153
      46.2063      9.85559
      46.4242      9.88984
      46.6431      9.92431
      46.8630      9.95899
      47.0839      9.99388
      47.3059      10.0290
      47.5289      10.0642
      47.7528      10.0997
      47.9779      10.1354
      48.2040      10.1713
      48.4311      10.2073
      48.6592      10.2436
      48.8884      10.2801
      49.1187      10.3168
      49.3501      10.3538
      49.5825      10.3909
      49.8159      10.4283
      50.0505      10.4659
      50.2861      10.5037
      50.5229      10.5417
      50.7607      10.5799
      50.9996      10.6184
      51.2396      10.6570
      51.4808      10.6959
      51.7230      10.7350
      51.9663      10.7743
      52.2108      10.8138
      52.4564      10.8536
      52.7032      10.8936
      52.9511      10.9338
      53.2001      10.9743
      53.4503      11.0149
      53.7016      11.0558
      53.9541      11.0968
      54.2077      11.1382
      54.4626      11.1797
      54.7186      11.2216
      54.9758      11.2637
      55.2341      11.3061
      55.4937      11.3487
      55.7545      11.3916
      56.0164      11.4347
      56.2796      11.4780
      56.5440      11.5215
      56.8096      11.5653
      57.0765      11.6093
      57.3445      11.6535
      57.6138      11.6980
      57.8844      11.7427
      58.1562      11.7877
      58.4292      11.8330
      58.7035      11.8786
      58.9791      11.9245
      59.2560      11.9706
      59.5341      12.0170
      59.8135      12.0636
      60.0942      12.1105
      60.3762      12.1577
      60.6595      12.2054
      60.9441      12.2534
      61.2300      12.3019
      61.5173      12.3508
      61.8058      12.4000
      62.0957      12.4497
      62.3870      12.4998
      62.6796      12.5505
      62.9735      12.6019
      63.2688      12.6539
      63.5654      12.7067
      63.8634      12.7603
      64.1628      12.8149
      64.4636      12.8706
      64.7658      12.9273
      65.0694      12.9854
      65.3743      13.0449
      65.6807      13.1060
      65.9885      13.1689
      66.2977      13.2338
      66.6083      13.3010
      66.9204      13.3708
      67.2339      13.4435
      67.5488      13.5196
      67.8652      13.5995
      68.1831      13.6839
      68.5024      13.7736
      68.8232      13.8693
      69.1455      13.9725
      69.4693      14.0844
      69.7946      14.2072
      70.1214      14.3437
      70.4496      14.4976
      70.7794      14.6747
      71.1108      14.8840
      71.4436      15.1407
      71.7780      15.4745
      72.1139      15.9544
      72.4514      16.8278
      72.7904         -NaN
      73.1310         -NaN
      73.4732         -NaN
      73.8169         -NaN
      74.1623         -NaN
      74.5092         -NaN
      74.8578         -NaN
      75.2079         -NaN
      75.5597         -NaN
      75.9130         -NaN
      76.2681         -NaN
      76.6247         -NaN
      76.9830         -NaN
      77.3430         -NaN
      77.7046         -NaN
      78.0679         -NaN
      78.4328         -NaN
      78.7995         -NaN
      79.1678         -NaN
      79.5378         -NaN
      79.9096         -NaN
      80.2830         -NaN
      80.6582         -NaN
      81.0352         -NaN
      81.4138         -NaN
      81.7942         -NaN
      82.1764         -NaN
      82.5603         -NaN
      82.9460         -NaN
      83.3335         -NaN
      83.7227         -NaN
      84.1138         -NaN
      84.5067         -NaN
      84.9014         -NaN
      85.2979         -NaN
      85.6962         -NaN
      86.0964         -NaN
      86.4984         -NaN
      86.9023         -NaN
      87.3080         -NaN
      87.7156         -NaN
      88.1251         -NaN
      88.5365         -NaN
      88.9498         -NaN
      89.3649         -NaN
      89.7820         -NaN
      90.2011         -NaN
      90.6221         -NaN
      91.0450         -NaN
      91.4698         -NaN
      91.8967         -NaN
      92.3254         -NaN
      92.7562         -NaN
      93.1890         -NaN
      93.6237         -NaN
      94.0605         -NaN
      94.4993         -NaN
      94.9401         -NaN
      95.3829         -NaN
      95.8278         -NaN
      96.2747         -NaN
      96.7237         -NaN
      97.1748         -NaN
      97.6279         -NaN
      98.0832         -NaN
      98.5406         -NaN

----------------------------------------------------------------------
SPECTRUM: CWW_Sbc_ext
FILTER:        SDSS r + CCD, [MT]  no atmosphere (Ref. F. Castander)
----------------------------------------------------------------------
      0.00000      0.00000
   0.00461578   0.00220725
   0.00925291   0.00441235
    0.0139114   0.00662764
    0.0185914   0.00888065
    0.0232930    0.0112225
    0.0280163    0.0136851
    0.0327615    0.0162981
    0.0375284    0.0190793
    0.0423174    0.0219844
    0.0471286    0.0249523
    0.0519619    0.0279581
    0.0568175    0.0310167
    0.0616956    0.0341325
    0.0665962    0.0372623
    0.0715193    0.0403546
    0.0764652    0.0434030
    0.0814340    0.0464187
    0.0864257    0.0494103
    0.0914403    0.0523199
    0.0964782    0.0551187
     0.101539    0.0578159
     0.106624    0.0604758
     0.111732    0.0631250
     0.116863    0.0657836
     0.122018    0.0683992
     0.127198    0.0709512
     0.132400    0.0734651
     0.137627    0.0759861
     0.142878    0.0785075
     0.148154    0.0809938
     0.153453    0.0834367
     0.158777    0.0857953
     0.164126    0.0881441
     0.169499    0.0905143
     0.174898    0.0929390
     0.180321    0.0953833
     0.185769    0.0978984
     0.191242     0.100478
     0.196741     0.103146
     0.202264     0.105908
     0.207814     0.108773
     0.213389     0.111709
     0.218990     0.114749
     0.224616     0.117968
     0.230269     0.121359
     0.235947     0.124989
     0.241652     0.128884
     0.247383     0.133063
     0.253141     0.137492
     0.258925     0.142182
     0.264736     0.147065
     0.270574     0.152121
     0.276439     0.157328
     0.282331     0.162659
     0.288249     0.167934
     0.294196     0.172977
     0.300170     0.177701
     0.306171     0.182161
     0.312200     0.186560
     0.318257     0.191043
     0.324342     0.195668
     0.330454     0.200420
     0.336596     0.205314
     0.342765     0.210322
     0.348963     0.215462
     0.355189     0.220743
     0.361445     0.226219
     0.367729     0.231941
     0.374042     0.238055
     0.380384     0.244685
     0.386756     0.251832
     0.393157     0.259459
     0.399587     0.267466
     0.406048     0.275806
     0.412538     0.284439
     0.419057     0.293389
     0.425608     0.302665
     0.432188     0.312298
     0.438799     0.322325
     0.445440     0.332830
     0.452112     0.343805
     0.458814     0.355175
     0.465548     0.366872
     0.472312     0.378844
     0.479108     0.391122
     0.485936     0.403733
     0.492794     0.416767
     0.499685     0.430198
     0.506607     0.444027
     0.513561     0.458271
     0.520548     0.472992
     0.527566     0.488152
     0.534617     0.503746
     0.541700     0.519662
     0.548817     0.535708
     0.555966     0.551768
     0.563148     0.567735
     0.570363     0.583568
     0.577611     0.599226
     0.584893     0.614801
     0.592209     0.630319
     0.599558     0.645890
     0.606941     0.661676
     0.614359     0.677886
     0.621810     0.694565
     0.629296     0.711880
     0.636817     0.729811
     0.644372     0.748282
     0.651962     0.767221
     0.659587     0.786565
     0.667247     0.806185
     0.674943     0.826039
     0.682674     0.846182
     0.690441     0.866654
     0.698244     0.887567
     0.706082     0.909022
     0.713957     0.931030
     0.721869     0.953271
     0.729816     0.975464
     0.737801     0.997239
     0.745822      1.01843
     0.753881      1.03911
     0.761976      1.05957
     0.770109      1.08002
     0.778279      1.10060
     0.786488      1.12131
     0.794734      1.14198
     0.803018      1.16245
     0.811340      1.18265
     0.819701      1.20262
     0.828100      1.22242
     0.836538      1.24228
     0.845015      1.26230
     0.853532      1.28248
     0.862087      1.30272
     0.870682      1.32280
     0.879317      1.34242
     0.887991      1.36132
     0.896706      1.37945
     0.905461      1.39690
     0.914256      1.41386
     0.923092      1.43062
     0.931968      1.44745
     0.940886      1.46452
     0.949845      1.48193
     0.958845      1.49953
     0.967886      1.51712
     0.976970      1.53451
     0.986095      1.55158
     0.995262      1.56827
      1.00447      1.58457
      1.01372      1.60047
      1.02302      1.61598
      1.03236      1.63108
      1.04174      1.64575
      1.05116      1.65999
      1.06063      1.67380
      1.07014      1.68717
      1.07970      1.70011
      1.08930      1.71262
      1.09894      1.72472
      1.10863      1.73640
      1.11836      1.74770
      1.12814      1.75861
      1.13796      1.76915
      1.14783      1.77934
      1.15774      1.78920
      1.16770      1.79873
      1.17771      1.80795
      1.18776      1.81687
      1.19786      1.82551
      1.20800      1.83389
      1.21820      1.84201
      1.22844      1.84990
      1.23872      1.85755
      1.24905      1.86500
      1.25944      1.87224
      1.26986      1.87929
      1.28034      1.88617
      1.29087      1.89287
      1.30144      1.89941
      1.31206      1.90581
      1.32274      1.91207
      1.33346      1.91818
      1.34423      1.92417
      1.35505      1.93002
      1.36592      1.93575
      1.37684      1.94137
      1.38781      1.94688
      1.39883      1.95229
      1.40991      1.95762
      1.42103      1.96287
      1.43220      1.96804
      1.44343      1.97315
      1.45471      1.97818
      1.46604      1.98315
      1.47742      1.98806
      1.48886      1.99291
      1.50035      1.99770
      1.51189      2.00245
      1.52348      2.00715
      1.53513      2.01179
      1.54683      2.01637
      1.55859      2.02089
      1.57040      2.02535
      1.58226      2.02975
      1.59418      2.03408
      1.60615      2.03834
      1.61818      2.04255
      1.63027      2.04668
      1.64241      2.05074
      1.65461      2.05473
      1.66686      2.05863
      1.67917      2.06245
      1.69153      2.06619
      1.70396      2.06984
      1.71644      2.07340
      1.72898      2.07686
      1.74157      2.08024
      1.75423      2.08353
      1.76694      2.08673
      1.77971      2.08986
      1.79254      2.09291
      1.80543      2.09588
      1.81838      2.09878
      1.83139      2.10162
      1.84446      2.10438
      1.85759      2.10709
      1.87078      2.10973
      1.88403      2.11232
      1.89734      2.11486
      1.91072      2.11737
      1.92415      2.11986
      1.93765      2.12235
      1.95121      2.12483
      1.96483      2.12732
      1.97852      2.12982
      1.99226      2.13233
      2.00608      2.13487
      2.01995      2.13743
      2.03389      2.14004
      2.04789      2.14273
      2.06196      2.14551
      2.07610      2.14842
      2.09030      2.15146
      2.10456      2.15461
      2.11889      2.15783
      2.13329      2.16110
      2.14775      2.16437
      2.16228      2.16767
      2.17687      2.17103
      2.19154      2.17441
      2.20627      2.17778
      2.22107      2.18108
      2.23594      2.18420
      2.25087      2.18712
      2.26588      2.18988
      2.28095      2.19244
      2.29610      2.19489
      2.31131      2.19742
      2.32660      2.19995
      2.34195      2.20244
      2.35738      2.20495
      2.37287      2.20722
      2.38844      2.20957
      2.40408      2.21215
      2.41979      2.21479
      2.43558      2.21734
      2.45144      2.21987
      2.46737      2.22224
      2.48337      2.22465
      2.49945      2.22741
      2.51560      2.23060
      2.53183      2.23407
      2.54813      2.23782
      2.56451      2.24168
      2.58096      2.24518
      2.59749      2.24856
      2.61410      2.25182
      2.63078      2.25467
      2.64754      2.25692
      2.66438      2.25857
      2.68129      2.25935
      2.69828      2.25966
      2.71535      2.25969
      2.73250      2.25946
      2.74973      2.25876
      2.76704      2.25736
      2.78443      2.25531
      2.80189      2.25265
      2.81944      2.24985
      2.83707      2.24699
      2.85478      2.24388
      2.87258      2.24035
      2.89045      2.23667
      2.90841      2.23280
      2.92645      2.22941
      2.94457      2.22643
      2.96278      2.22332
      2.98107      2.21964
      2.99945      2.21516
      3.01791      2.20997
      3.03645      2.20451
      3.05509      2.19918
      3.07380      2.19379
      3.09261      2.18838
      3.11150      2.18294
      3.13048      2.17751
      3.14954      2.17186
      3.16869      2.16631
      3.18794      2.16060
      3.20727      2.15482
      3.22669      2.14922
      3.24620      2.14346
      3.26580      2.13745
      3.28549      2.13134
      3.30527      2.12531
      3.32514      2.11957
      3.34510      2.11441
      3.36516      2.10908
      3.38531      2.10352
      3.40555      2.09765
      3.42588      2.09179
      3.44631      2.08602
      3.46684      2.08084
      3.48745      2.07648
      3.50817      2.07330
      3.52898      2.07188
      3.54988      2.07220
      3.57088      2.07345
      3.59198      2.07510
      3.61318      2.07717
      3.63447      2.07939
      3.65586      2.08189
      3.67735      2.08431
      3.69894      2.08635
      3.72063      2.08787
      3.74242      2.08910
      3.76431      2.08993
      3.78630      2.09061
      3.80839      2.09125
      3.83059      2.09178
      3.85288      2.09187
      3.87529      2.09149
      3.89779      2.09082
      3.92039      2.08938
      3.94311      2.08764
      3.96592      2.08579
      3.98884      2.08432
      4.01187      2.08380
      4.03501      2.08443
      4.05825      2.08529
      4.08159      2.08651
      4.10505      2.08806
      4.12861      2.09004
      4.15229      2.09210
      4.17607      2.09425
      4.19996      2.09614
      4.22396      2.09763
      4.24808      2.09920
      4.27230      2.10101
      4.29663      2.10288
      4.32108      2.10517
      4.34564      2.10852
      4.37032      2.11269
      4.39511      2.11789
      4.42001      2.12352
      4.44503      2.12904
      4.47016      2.13383
      4.49541      2.13852
      4.52077      2.14352
      4.54626      2.14915
      4.57186      2.15541
      4.59758      2.16231
      4.62341      2.16876
      4.64937      2.17397
      4.67545      2.17745
      4.70164      2.17862
      4.72796      2.17805
      4.75440      2.17693
      4.78096      2.17691
      4.80764      2.17822
      4.83445      2.18127
      4.86138      2.18569
      4.88844      2.19213
      4.91562      2.20081
      4.94292      2.21285
      4.97035      2.22726
      4.99791      2.24361
      5.02560      2.26181
      5.05341      2.28211
      5.08135      2.30383
      5.10942      2.32658
      5.13762      2.34999
      5.16595      2.37404
      5.19441      2.39966
      5.22300      2.42718
      5.25173      2.45652
      5.28058      2.48638
      5.30957      2.51755
      5.33870      2.54904
      5.36796      2.58071
      5.39735      2.61270
      5.42688      2.64606
      5.45654      2.68043
      5.48634      2.71676
      5.51628      2.75516
      5.54636      2.79607
      5.57658      2.83974
      5.60693      2.88601
      5.63743      2.93368
      5.66807      2.97922
      5.69885      3.02260
      5.72977      3.06336
      5.76083      3.10301
      5.79204      3.14420
      5.82339      3.18972
      5.85488      3.23907
      5.88652      3.29202
      5.91831      3.34651
      5.95024      3.40113
      5.98232      3.45482
      6.01455      3.50727
      6.04693      3.55752
      6.07946      3.60392
      6.11213      3.65004
      6.14496      3.70099
      6.17794      3.76081
      6.21107      3.83068
      6.24436      3.90914
      6.27780      3.99289
      6.31139      4.07915
      6.34514      4.16491
      6.37904      4.24707
      6.41310      4.32237
      6.44732      4.38863
      6.48170      4.44361
      6.51623      4.48644
      6.55092      4.51713
      6.58578      4.53741
      6.62079      4.54989
      6.65597      4.55768
      6.69130      4.56269
      6.72681      4.56654
      6.76247      4.56999
      6.79830      4.57338
      6.83430      4.57671
      6.87046      4.58001
      6.90679      4.58320
      6.94328      4.58620
      6.97995      4.58930
      7.01678      4.59238
      7.05378      4.59542
      7.09096      4.59821
      7.12831      4.60069
      7.16582      4.60260
      7.20352      4.60411
      7.24138      4.60501
      7.27942      4.60559
      7.31764      4.60612
      7.35603      4.60705
      7.39460      4.60867
      7.43335      4.61094
      7.47227      4.61343
      7.51138      4.61599
      7.55067      4.61872
      7.59014      4.62150
      7.62979      4.62444
      7.66962      4.62729
      7.70964      4.62998
      7.74984      4.63231
      7.79023      4.63461
      7.83080      4.63684
      7.87156      4.63929
      7.91251      4.64210
      7.95365      4.64536
      7.99498      4.64879
      8.03649      4.65252
      8.07821      4.65656
      8.12011      4.66092
      8.16220      4.66586
      8.20450      4.67129
      8.24698      4.67686
      8.28966      4.68239
      8.33254      4.68797
      8.37562      4.69335
      8.41890      4.69880
      8.46237      4.70429
      8.50605      4.70967
      8.54993      4.71472
      8.59401      4.71976
      8.63829      4.72466
      8.68278      4.72918
      8.72747      4.73322
      8.77237      4.73655
      8.81748      4.73927
      8.86279      4.74211
      8.90832      4.74587
      8.95405      4.75054
      9.00000      4.75630
      9.04616      4.76272
      9.09253      4.76952
      9.13911      4.77661
      9.18591      4.78418
      9.23293      4.79215
      9.28016      4.80051
      9.32762      4.80896
      9.37529      4.81711
      9.42317      4.82459
      9.47128      4.83128
      9.51962      4.83718
      9.56818      4.84249
      9.61696      4.84757
      9.66596      4.85273
      9.71519      4.85816
      9.76465      4.86406
      9.81434      4.87065
      9.86426      4.87793
      9.91440      4.88593
      9.96478      4.89459
      10.0154      4.90385
      10.0662      4.91361
      10.1173      4.92383
      10.1686      4.93458
      10.2202      4.94542
      10.2720      4.95583
      10.3240      4.96563
      10.3763      4.97491
      10.4288      4.98365
      10.4815      4.99202
      10.5345      5.00045
      10.5878      5.00927
      10.6413      5.01906
      10.6950      5.03017
      10.7490      5.04225
      10.8032      5.05467
      10.8577      5.06751
      10.9124      5.08070
      10.9674      5.09430
      11.0226      5.10848
      11.0781      5.12310
      11.1339      5.13757
      11.1899      5.15161
      11.2462      5.16521
      11.3027      5.17805
      11.3595      5.19010
      11.4165      5.20144
      11.4738      5.21172
      11.5314      5.22063
      11.5893      5.22857
      11.6474      5.23576
      11.7057      5.24258
      11.7644      5.24962
      11.8233      5.25718
      11.8825      5.26521
      11.9420      5.27398
      12.0017      5.28373
      12.0617      5.29437
      12.1220      5.30595
      12.1826      5.31855
      12.2434      5.33181
      12.3045      5.34540
      12.3660      5.35949
      12.4277      5.37381
      12.4896      5.38795
      12.5519      5.40120
      12.6144      5.41252
      12.6773      5.42138
      12.7404      5.42858
      12.8038      5.43506
      12.8676      5.44130
      12.9316      5.44754
      12.9959      5.45377
      13.0605      5.46013
      13.1254      5.46667
      13.1906      5.47372
      13.2561      5.48156
      13.3219      5.49037
      13.3880      5.50013
      13.4544      5.51062
      13.5211      5.52142
      13.5881      5.53217
      13.6555      5.54265
      13.7231      5.55273
      13.7911      5.56247
      13.8594      5.57191
      13.9279      5.58128
      13.9968      5.59070
      14.0661      5.60042
      14.1356      5.61071
      14.2055      5.62186
      14.2757      5.63415
      14.3462      5.64771
      14.4170      5.66246
      14.4882      5.67825
      14.5597      5.69499
      14.6315      5.71250
      14.7036      5.73074
      14.7761      5.74954
      14.8489      5.76873
      14.9221      5.78808
      14.9956      5.80745
      15.0694      5.82674
      15.1436      5.84601
      15.2181      5.86554
      15.2930      5.88554
      15.3682      5.90613
      15.4437      5.92747
      15.5196      5.94965
      15.5959      5.97270
      15.6725      5.99674
      15.7494      6.02183
      15.8267      6.04786
      15.9044      6.07474
      15.9824      6.10242
      16.0608      6.13066
      16.1396      6.15918
      16.2187      6.18774
      16.2982      6.21602
      16.3780      6.24375
      16.4582      6.27077
      16.5388      6.29682
      16.6198      6.32155
      16.7011      6.34486
      16.7828      6.36664
      16.8649      6.38685
      16.9473      6.40571
      17.0302      6.42370
      17.1134      6.44145
      17.1970      6.45961
      17.2810      6.47859
      17.3654      6.49863
      17.4502      6.51972
      17.5353      6.54186
      17.6209      6.56481
      17.7068      6.58840
      17.7932      6.61241
      17.8799      6.63654
      17.9671      6.66028
      18.0546      6.68315
      18.1426      6.70460
      18.2309      6.72431
      18.3197      6.74213
      18.4089      6.75812
      18.4984      6.77242
      18.5884      6.78532
      18.6789      6.79700
      18.7697      6.80760
      18.8609      6.81720
      18.9526      6.82600
      19.0447      6.83424
      19.1372      6.84220
      19.2302      6.85010
      19.3236      6.85805
      19.4174      6.86607
      19.5116      6.87424
      19.6063      6.88262
      19.7014      6.89124
      19.7970      6.90020
      19.8930      6.90953
      19.9894      6.91927
      20.0863      6.92944
      20.1836      6.94004
      20.2814      6.95097
      20.3796      6.96219
      20.4783      6.97358
      20.5774      6.98517
      20.6770      6.99691
      20.7771      7.00885
      20.8776      7.02098
      20.9786      7.03329
      21.0800      7.04584
      21.1820      7.05861
      21.2844      7.07159
      21.3872      7.08474
      21.4905      7.09804
      21.5944      7.11142
      21.6986      7.12482
      21.8034      7.13809
      21.9087      7.15121
      22.0144      7.16412
      22.1206      7.17703
      22.2274      7.19007
      22.3346      7.20343
      22.4423      7.21715
      22.5505      7.23129
      22.6592      7.24585
      22.7684      7.26087
      22.8781      7.27628
      22.9883      7.29194
      23.0991      7.30768
      23.2103      7.32332
      23.3220      7.33876
      23.4343      7.35376
      23.5471      7.36822
      23.6604      7.38204
      23.7742      7.39530
      23.8886      7.40822
      24.0035      7.42118
      24.1189      7.43444
      24.2348      7.44813
      24.3513      7.46223
      24.4683      7.47661
      24.5859      7.49116
      24.7040      7.50572
      24.8226      7.52029
      24.9418      7.53479
      25.0615      7.54911
      25.1818      7.56314
      25.3027      7.57667
      25.4241      7.58946
      25.5461      7.60141
      25.6686      7.61263
      25.7917      7.62330
      25.9153      7.63364
      26.0396      7.64378
      26.1644      7.65377
      26.2898      7.66362
      26.4157      7.67336
      26.5423      7.68299
      26.6694      7.69255
      26.7971      7.70206
      26.9254      7.71153
      27.0543      7.72099
      27.1838      7.73045
      27.3139      7.73994
      27.4446      7.74948
      27.5759      7.75908
      27.7078      7.76876
      27.8403      7.77851
      27.9734      7.78836
      28.1072      7.79829
      28.2415      7.80831
      28.3765      7.81842
      28.5121      7.82864
      28.6483      7.83894
      28.7852      7.84934
      28.9226      7.85983
      29.0608      7.87042
      29.1995      7.88110
      29.3389      7.89188
      29.4789      7.90276
      29.6196      7.91374
      29.7610      7.92483
      29.9030      7.93603
      30.0456      7.94734
      30.1889      7.95876
      30.3329      7.97029
      30.4775      7.98194
      30.6228      7.99370
      30.7687      8.00557
      30.9154      8.01756
      31.0627      8.02966
      31.2107      8.04189
      31.3594      8.05422
      31.5087      8.06667
      31.6588      8.07924
      31.8095      8.09193
      31.9610      8.10474
      32.1131      8.11767
      32.2660      8.13072
      32.4195      8.14389
      32.5738      8.15718
      32.7287      8.17059
      32.8844      8.18413
      33.0408      8.19779
      33.1979      8.21157
      33.3558      8.22548
      33.5144      8.23951
      33.6737      8.25367
      33.8337      8.26796
      33.9945      8.28237
      34.1560      8.29691
      34.3183      8.31158
      34.4813      8.32637
      34.6451      8.34129
      34.8096      8.35635
      34.9749      8.37153
      35.1410      8.38684
      35.3078      8.40229
      35.4754      8.41787
      35.6438      8.43358
      35.8129      8.44943
      35.9828      8.46542
      36.1535      8.48153
      36.3250      8.49779
      36.4973      8.51418
      36.6704      8.53070
      36.8443      8.54736
      37.0189      8.56416
      37.1944      8.58110
      37.3707      8.59818
      37.5478      8.61540
      37.7258      8.63276
      37.9045      8.65027
      38.0841      8.66791
      38.2645      8.68571
      38.4457      8.70364
      38.6278      8.72172
      38.8107      8.73995
      38.9945      8.75831
      39.1791      8.77682
      39.3645      8.79548
      39.5509      8.81429
      39.7380      8.83324
      39.9261      8.85235
      40.1150      8.87160
      40.3048      8.89101
      40.4954      8.91058
      40.6869      8.93029
      40.8794      8.95016
      41.0727      8.97018
      41.2669      8.99035
      41.4620      9.01069
      41.6580      9.03117
      41.8549      9.05181
      42.0527      9.07261
      42.2514      9.09356
      42.4510      9.11467
      42.6516      9.13594
      42.8531      9.15738
      43.0555      9.17897
      43.2588      9.20072
      43.4631      9.22264
      43.6684      9.24470
      43.8745      9.26693
      44.0817      9.28932
      44.2898      9.31188
      44.4988      9.33461
      44.7088      9.35751
      44.9198      9.38056
      45.1318      9.40379
      45.3447      9.42718
      45.5586      9.45075
      45.7735      9.47449
      45.9894      9.49839
      46.2063      9.52245
      46.4242      9.54668
      46.6431      9.57109
      46.8630      9.59567
      47.0839      9.62043
      47.3059      9.64536
      47.5289      9.67047
      47.7528      9.69574
      47.9779      9.72118
      48.2040      9.74681
      48.4311      9.77260
      48.6592      9.79858
      48.8884      9.82474
      49.1187      9.85109
      49.3501      9.87762
      49.5825      9.90434
      49.8159      9.93125
      50.0505      9.95834
      50.2861      9.98563
      50.5229      10.0131
      50.7607      10.0407
      50.9996      10.0686
      51.2396      10.0966
      51.4808      10.1248
      51.7230      10.1532
      51.9663      10.1817
      52.2108      10.2105
      52.4564      10.2395
      52.7032      10.2686
      52.9511      10.2980
      53.2001      10.3275
      53.4503      10.3572
      53.7016      10.3872
      53.9541      10.4173
      54.2077      10.4476
      54.4626      10.4781
      54.7186      10.5089
      54.9758      10.5398
      55.2341      10.5710
      55.4937      10.6024
      55.7545      10.6340
      56.0164      10.6657
      56.2796      10.6977
      56.5440      10.7298
      56.8096      10.7622
      57.0765      10.7948
      57.3445      10.8275
      57.6138      10.8605
      57.8844      10.8937
      58.1562      10.9271
      58.4292      10.9608
      58.7035      10.9946
      58.9791      11.0287
      59.2560      11.0630
      59.5341      11.0975
      59.8135      11.1323
      60.0942      11.1673
      60.3762      11.2025
      60.6595      11.2381
      60.9441      11.2740
      61.2300      11.3102
      61.5173      11.3467
      61.8058      11.3835
      62.0957      11.4207
      62.3870      11.4583
      62.6796      11.4963
      62.9735      11.5348
      63.2688      11.5737
      63.5654      11.6132
      63.8634      11.6533
      64.1628      11.6940
      64.4636      11.7354
      64.7658      11.7776
      65.0694      11.8206
      65.3743      11.8645
      65.6807      11.9093
      65.9885      11.9552
      66.2977      12.0022
      66.6083      12.0506
      66.9204      12.1003
      67.2339      12.1516
      67.5488      12.2045
      67.8652      12.2594
      68.1831      12.3164
      68.5024      12.3756
      68.8232      12.4376
      69.1455      12.5025
      69.4693      12.5707
      69.7946      12.6428
      70.1214      12.7192
      70.4496      12.8007
      70.7794      12.8881
      71.1108      12.9824
      71.4436      13.0850
      71.7780      13.1977
      72.1139      13.3228
      72.4514      13.4636
      72.7904      13.6249
      73.1310      13.8139
      73.4732      14.0425
      73.8169      14.3322
      74.1623      14.7283
      74.5092      15.3581
      74.8578      17.0315
      75.2079         -NaN
      75.5597         -NaN
      75.9130         -NaN
      76.2681         -NaN
      76.6247         -NaN
      76.9830         -NaN
      77.3430         -NaN
      77.7046         -NaN
      78.0679         -NaN
      78.4328         -NaN
      78.7995         -NaN
      79.1678         -NaN
      79.5378         -NaN
      79.9096         -NaN
      80.2830         -NaN
      80.6582         -NaN
      81.0352         -NaN
      81.4138         -NaN
      81.7942         -NaN
      82.1764         -NaN
      82.5603         -NaN
      82.9460         -NaN
      83.3335         -NaN
      83.7227         -NaN
      84.1138         -NaN
      84.5067         -NaN
      84.9014         -NaN
      85.2979         -NaN
      85.6962         -NaN
      86.0964         -NaN
      86.4984         -NaN
      86.9023         -NaN
      87.3080         -NaN
      87.7156         -NaN
      88.1251         -NaN
      88.5365         -NaN
      88.9498         -NaN
      89.3649         -NaN
      89.7820         -NaN
      90.2011         -NaN
      90.6221         -NaN
      91.0450         -NaN
      91.4698         -NaN
      91.8967         -NaN
      92.3254         -NaN
      92.7562         -NaN
      93.1890         -NaN
      93.6237         -NaN
      94.0605         -NaN
      94.4993         -NaN
      94.9401         -NaN
      95.3829         -NaN
      95.8278         -NaN
      96.2747         -NaN
      96.7237         -NaN
      97.1748         -NaN
      97.6279         -NaN
      98.0832         -NaN
      98.5406         -NaN

----------------------------------------------------------------------
SPECTRUM: CWW_Scd_ext
FILTER:        SDSS r + CCD, [MT]  no atmosphere (Ref. F. Castander)
----------------------------------------------------------------------
      0.00000      0.00000
   0.00461578  0.000210174
   0.00925291  0.000402193
    0.0139114  0.000626777
    0.0185914  0.000942746
    0.0232930   0.00139410
    0.0280163   0.00197976
    0.0327615   0.00269255
    0.0375284   0.00347687
    0.0423174   0.00433087
    0.0471286   0.00525712
    0.0519619   0.00625335
    0.0568175   0.00728608
    0.0616956   0.00837024
    0.0665962   0.00946973
    0.0715193    0.0105818
    0.0764652    0.0116559
    0.0814340    0.0125874
    0.0864257    0.0132711
    0.0914403    0.0136357
    0.0964782    0.0136691
     0.101539    0.0133882
     0.106624    0.0129202
     0.111732    0.0123464
     0.116863    0.0118124
     0.122018    0.0113587
     0.127198    0.0110173
     0.132400    0.0108332
     0.137627    0.0108587
     0.142878    0.0110687
     0.148154    0.0113843
     0.153453    0.0117576
     0.158777    0.0121215
     0.164126    0.0126083
     0.169499    0.0132726
     0.174898    0.0141175
     0.180321    0.0149553
     0.185769    0.0158085
     0.191242    0.0166871
     0.196741    0.0176843
     0.202264    0.0188169
     0.207814    0.0200164
     0.213389    0.0211252
     0.218990    0.0221306
     0.224616    0.0231200
     0.230269    0.0241606
     0.235947    0.0253967
     0.241652    0.0268827
     0.247383    0.0286530
     0.253141    0.0306525
     0.258925    0.0329486
     0.264736    0.0355240
     0.270574    0.0383702
     0.276439    0.0413965
     0.282331    0.0445041
     0.288249    0.0474568
     0.294196    0.0502374
     0.300170    0.0529224
     0.306171    0.0555727
     0.312200    0.0583751
     0.318257    0.0613477
     0.324342    0.0644636
     0.330454    0.0676481
     0.336596    0.0709431
     0.342765    0.0743175
     0.348963    0.0778629
     0.355189    0.0816479
     0.361445    0.0858315
     0.367729    0.0905451
     0.374042    0.0961024
     0.380384     0.102639
     0.386756     0.110017
     0.393157     0.117947
     0.399587     0.126009
     0.406048     0.134044
     0.412538     0.142058
     0.419057     0.150166
     0.425608     0.158450
     0.432188     0.166899
     0.438799     0.175454
     0.445440     0.184108
     0.452112     0.192845
     0.458814     0.201636
     0.465548     0.210498
     0.472312     0.219486
     0.479108     0.228679
     0.485936     0.238183
     0.492794     0.248210
     0.499685     0.258766
     0.506607     0.269820
     0.513561     0.281352
     0.520548     0.293370
     0.527566     0.305788
     0.534617     0.318637
     0.541700     0.331812
     0.548817     0.345095
     0.555966     0.358403
     0.563148     0.371688
     0.570363     0.384913
     0.577611     0.398045
     0.584893     0.411185
     0.592209     0.424250
     0.599558     0.437233
     0.606941     0.450262
     0.614359     0.463463
     0.621810     0.476804
     0.629296     0.490478
     0.636817     0.504451
     0.644372     0.518646
     0.651962     0.533097
     0.659587     0.547794
     0.667247     0.562590
     0.674943     0.577418
     0.682674     0.592291
     0.690441     0.607146
     0.698244     0.622078
     0.706082     0.637275
     0.713957     0.652814
     0.721869     0.668434
     0.729816     0.683984
     0.737801     0.699083
     0.745822     0.713510
     0.753881     0.727387
     0.761976     0.740984
     0.770109     0.754468
     0.778279     0.767935
     0.786488     0.781373
     0.794734     0.794499
     0.803018     0.807199
     0.811340     0.819529
     0.819701     0.831670
     0.828100     0.843819
     0.836538     0.856422
     0.845015     0.869571
     0.853532     0.883110
     0.862087     0.896741
     0.870682     0.909915
     0.879317     0.922052
     0.887991     0.932803
     0.896706     0.942196
     0.905461     0.950513
     0.914256     0.958173
     0.923092     0.965538
     0.931968     0.972854
     0.940886     0.980265
     0.949845     0.987839
     0.958845     0.995547
     0.967886      1.00333
     0.976970      1.01113
     0.986095      1.01891
     0.995262      1.02667
      1.00447      1.03439
      1.01372      1.04206
      1.02302      1.04967
      1.03236      1.05722
      1.04174      1.06470
      1.05116      1.07209
      1.06063      1.07939
      1.07014      1.08660
      1.07970      1.09372
      1.08930      1.10074
      1.09894      1.10766
      1.10863      1.11450
      1.11836      1.12124
      1.12814      1.12790
      1.13796      1.13447
      1.14783      1.14094
      1.15774      1.14732
      1.16770      1.15359
      1.17771      1.15974
      1.18776      1.16577
      1.19786      1.17167
      1.20800      1.17741
      1.21820      1.18300
      1.22844      1.18841
      1.23872      1.19365
      1.24905      1.19870
      1.25944      1.20357
      1.26986      1.20824
      1.28034      1.21271
      1.29087      1.21698
      1.30144      1.22104
      1.31206      1.22489
      1.32274      1.22853
      1.33346      1.23195
      1.34423      1.23516
      1.35505      1.23815
      1.36592      1.24092
      1.37684      1.24347
      1.38781      1.24581
      1.39883      1.24794
      1.40991      1.24987
      1.42103      1.25158
      1.43220      1.25310
      1.44343      1.25441
      1.45471      1.25551
      1.46604      1.25642
      1.47742      1.25712
      1.48886      1.25764
      1.50035      1.25797
      1.51189      1.25812
      1.52348      1.25809
      1.53513      1.25787
      1.54683      1.25747
      1.55859      1.25690
      1.57040      1.25614
      1.58226      1.25522
      1.59418      1.25414
      1.60615      1.25291
      1.61818      1.25154
      1.63027      1.25001
      1.64241      1.24834
      1.65461      1.24653
      1.66686      1.24458
      1.67917      1.24250
      1.69153      1.24031
      1.70396      1.23800
      1.71644      1.23559
      1.72898      1.23308
      1.74157      1.23047
      1.75423      1.22778
      1.76694      1.22500
      1.77971      1.22215
      1.79254      1.21925
      1.80543      1.21630
      1.81838      1.21330
      1.83139      1.21027
      1.84446      1.20721
      1.85759      1.20413
      1.87078      1.20102
      1.88403      1.19789
      1.89734      1.19476
      1.91072      1.19164
      1.92415      1.18854
      1.93765      1.18547
      1.95121      1.18245
      1.96483      1.17947
      1.97852      1.17655
      1.99226      1.17368
      2.00608      1.17088
      2.01995      1.16816
      2.03389      1.16552
      2.04789      1.16302
      2.06196      1.16068
      2.07610      1.15854
      2.09030      1.15662
      2.10456      1.15490
      2.11889      1.15335
      2.13329      1.15195
      2.14775      1.15065
      2.16228      1.14947
      2.17687      1.14847
      2.19154      1.14758
      2.20627      1.14677
      2.22107      1.14600
      2.23594      1.14512
      2.25087      1.14414
      2.26588      1.14309
      2.28095      1.14192
      2.29610      1.14077
      2.31131      1.13978
      2.32660      1.13892
      2.34195      1.13811
      2.35738      1.13743
      2.37287      1.13660
      2.38844      1.13596
      2.40408      1.13565
      2.41979      1.13552
      2.43558      1.13539
      2.45144      1.13535
      2.46737      1.13526
      2.48337      1.13531
      2.49945      1.13582
      2.51560      1.13687
      2.53183      1.13831
      2.54813      1.14012
      2.56451      1.14215
      2.58096      1.14391
      2.59749      1.14564
      2.61410      1.14734
      2.63078      1.14874
      2.64754      1.14963
      2.66438      1.15002
      2.68129      1.14964
      2.69828      1.14888
      2.71535      1.14794
      2.73250      1.14685
      2.74973      1.14538
      2.76704      1.14332
      2.78443      1.14071
      2.80189      1.13758
      2.81944      1.13441
      2.83707      1.13128
      2.85478      1.12796
      2.87258      1.12428
      2.89045      1.12048
      2.90841      1.11653
      2.92645      1.11307
      2.94457      1.11003
      2.96278      1.10688
      2.98107      1.10314
      2.99945      1.09861
      3.01791      1.09337
      3.03645      1.08786
      3.05509      1.08249
      3.07380      1.07705
      3.09261      1.07159
      3.11150      1.06610
      3.13048      1.06062
      3.14954      1.05492
      3.16869      1.04932
      3.18794      1.04355
      3.20727      1.03771
      3.22669      1.03205
      3.24620      1.02624
      3.26580      1.02018
      3.28549      1.01401
      3.30527      1.00792
      3.32514      1.00211
      3.34510     0.996888
      3.36516     0.991497
      3.38531     0.985867
      3.40555     0.979928
      3.42588     0.973994
      3.44631     0.968158
      3.46684     0.962909
      3.48745     0.958472
      3.50817     0.955236
      3.52898     0.953754
      3.54988     0.954017
      3.57088     0.955213
      3.59198     0.956800
      3.61318     0.958813
      3.63447     0.960974
      3.65586     0.963421
      3.67735     0.965781
      3.69894     0.967774
      3.72063     0.969250
      3.74242     0.970428
      3.76431     0.971211
      3.78630     0.971839
      3.80839     0.972425
      3.83059     0.972912
      3.85288     0.972949
      3.87529     0.972516
      3.89779     0.971798
      3.92039     0.970306
      3.94311     0.968514
      3.96592     0.966604
      3.98884     0.965076
      4.01187     0.964497
      4.03501     0.965077
      4.05825     0.965889
      4.08159     0.967053
      4.10505     0.968557
      4.12861     0.970480
      4.15229     0.972491
      4.17607     0.974589
      4.19996     0.976436
      4.22396     0.977882
      4.24808     0.979399
      4.27230     0.981170
      4.29663     0.983005
      4.32108     0.985253
      4.34564     0.988570
      4.37032     0.992706
      4.39511     0.997869
      4.42001      1.00347
      4.44503      1.00896
      4.47016      1.01372
      4.49541      1.01840
      4.52077      1.02338
      4.54626      1.02900
      4.57186      1.03525
      4.59758      1.04214
      4.62341      1.04858
      4.64937      1.05379
      4.67545      1.05728
      4.70164      1.05845
      4.72796      1.05788
      4.75440      1.05676
      4.78096      1.05674
      4.80764      1.05805
      4.83445      1.06110
      4.86138      1.06552
      4.88844      1.07195
      4.91562      1.08063
      4.94292      1.09267
      4.97035      1.10709
      4.99791      1.12345
      5.02560      1.14166
      5.05341      1.16197
      5.08135      1.18372
      5.10942      1.20649
      5.13762      1.22993
      5.16595      1.25400
      5.19441      1.27966
      5.22300      1.30722
      5.25173      1.33660
      5.28058      1.36652
      5.30957      1.39775
      5.33870      1.42931
      5.36796      1.46104
      5.39735      1.49311
      5.42688      1.52655
      5.45654      1.56100
      5.48634      1.59742
      5.51628      1.63593
      5.54636      1.67695
      5.57658      1.72075
      5.60693      1.76717
      5.63743      1.81499
      5.66807      1.86070
      5.69885      1.90424
      5.72977      1.94516
      5.76083      1.98498
      5.79204      2.02634
      5.82339      2.07206
      5.85488      2.12164
      5.88652      2.17484
      5.91831      2.22962
      5.95024      2.28453
      5.98232      2.33853
      6.01455      2.39130
      6.04693      2.44187
      6.07946      2.48859
      6.11213      2.53505
      6.14496      2.58638
      6.17794      2.64668
      6.21107      2.71715
      6.24436      2.79633
      6.27780      2.88091
      6.31139      2.96809
      6.34514      3.05486
      6.37904      3.13806
      6.41310      3.21441
      6.44732      3.28167
      6.48170      3.33756
      6.51623      3.38114
      6.55092      3.41242
      6.58578      3.43314
      6.62079      3.44593
      6.65597      3.45397
      6.69130      3.45919
      6.72681      3.46321
      6.76247      3.46685
      6.79830      3.47041
      6.83430      3.47392
      6.87046      3.47741
      6.90679      3.48079
      6.94328      3.48396
      6.97995      3.48724
      7.01678      3.49050
      7.05378      3.49373
      7.09096      3.49670
      7.12831      3.49935
      7.16582      3.50143
      7.20352      3.50309
      7.24138      3.50413
      7.27942      3.50485
      7.31764      3.50551
      7.35603      3.50658
      7.39460      3.50837
      7.43335      3.51081
      7.47227      3.51347
      7.51138      3.51622
      7.55067      3.51913
      7.59014      3.52210
      7.62979      3.52522
      7.66962      3.52827
      7.70964      3.53114
      7.74984      3.53365
      7.79023      3.53613
      7.83080      3.53854
      7.87156      3.54116
      7.91251      3.54416
      7.95365      3.54762
      7.99498      3.55125
      8.03649      3.55519
      8.07821      3.55945
      8.12011      3.56403
      8.16220      3.56922
      8.20450      3.57490
      8.24698      3.58074
      8.28966      3.58653
      8.33254      3.59238
      8.37562      3.59801
      8.41890      3.60373
      8.46237      3.60949
      8.50605      3.61513
      8.54993      3.62044
      8.59401      3.62574
      8.63829      3.63089
      8.68278      3.63566
      8.72747      3.63993
      8.77237      3.64348
      8.81748      3.64639
      8.86279      3.64942
      8.90832      3.65340
      8.95405      3.65832
      9.00000      3.66435
      9.04616      3.67107
      9.09253      3.67818
      9.13911      3.68558
      9.18591      3.69348
      9.23293      3.70180
      9.28016      3.71052
      9.32762      3.71934
      9.37529      3.72785
      9.42317      3.73567
      9.47128      3.74268
      9.51962      3.74888
      9.56818      3.75447
      9.61696      3.75982
      9.66596      3.76525
      9.71519      3.77097
      9.76465      3.77718
      9.81434      3.78409
      9.86426      3.79172
      9.91440      3.80010
      9.96478      3.80917
      10.0154      3.81886
      10.0662      3.82906
      10.1173      3.83975
      10.1686      3.85099
      10.2202      3.86234
      10.2720      3.87323
      10.3240      3.88350
      10.3763      3.89323
      10.4288      3.90240
      10.4815      3.91120
      10.5345      3.92005
      10.5878      3.92931
      10.6413      3.93958
      10.6950      3.95123
      10.7490      3.96388
      10.8032      3.97690
      10.8577      3.99035
      10.9124      4.00417
      10.9674      4.01844
      11.0226      4.03331
      11.0781      4.04865
      11.1339      4.06384
      11.1899      4.07861
      11.2462      4.09292
      11.3027      4.10643
      11.3595      4.11913
      11.4165      4.13110
      11.4738      4.14196
      11.5314      4.15138
      11.5893      4.15980
      11.6474      4.16741
      11.7057      4.17465
      11.7644      4.18211
      11.8233      4.19012
      11.8825      4.19862
      11.9420      4.20790
      12.0017      4.21821
      12.0617      4.22946
      12.1220      4.24170
      12.1826      4.25502
      12.2434      4.26905
      12.3045      4.28342
      12.3660      4.29833
      12.4277      4.31350
      12.4896      4.32848
      12.5519      4.34253
      12.6144      4.35454
      12.6773      4.36393
      12.7404      4.37157
      12.8038      4.37843
      12.8676      4.38505
      12.9316      4.39165
      12.9959      4.39824
      13.0605      4.40496
      13.1254      4.41187
      13.1906      4.41933
      13.2561      4.42762
      13.3219      4.43694
      13.3880      4.44726
      13.4544      4.45837
      13.5211      4.46981
      13.5881      4.48120
      13.6555      4.49231
      13.7231      4.50298
      13.7911      4.51329
      13.8594      4.52329
      13.9279      4.53321
      13.9968      4.54319
      14.0661      4.55347
      14.1356      4.56438
      14.2055      4.57620
      14.2757      4.58924
      14.3462      4.60364
      14.4170      4.61931
      14.4882      4.63612
      14.5597      4.65394
      14.6315      4.67262
      14.7036      4.69208
      14.7761      4.71217
      14.8489      4.73269
      14.9221      4.75341
      14.9956      4.77416
      15.0694      4.79483
      15.1436      4.81551
      15.2181      4.83649
      15.2930      4.85800
      15.3682      4.88017
      15.4437      4.90317
      15.5196      4.92712
      15.5959      4.95205
      15.6725      4.97810
      15.7494      5.00534
      15.8267      5.03364
      15.9044      5.06294
      15.9824      5.09317
      16.0608      5.12407
      16.1396      5.15535
      16.2187      5.18673
      16.2982      5.21787
      16.3780      5.24845
      16.4582      5.27829
      16.5388      5.30711
      16.6198      5.33447
      16.7011      5.36030
      16.7828      5.38441
      16.8649      5.40678
      16.9473      5.42764
      17.0302      5.44753
      17.1134      5.46716
      17.1970      5.48727
      17.2810      5.50835
      17.3654      5.53065
      17.4502      5.55420
      17.5353      5.57898
      17.6209      5.60475
      17.7068      5.63130
      17.7932      5.65838
      17.8799      5.68565
      17.9671      5.71253
      18.0546      5.73842
      18.1426      5.76268
      18.2309      5.78493
      18.3197      5.80497
      18.4089      5.82284
      18.4984      5.83872
      18.5884      5.85292
      18.6789      5.86569
      18.7697      5.87715
      18.8609      5.88740
      18.9526      5.89669
      19.0447      5.90529
      19.1372      5.91356
      19.2302      5.92173
      19.3236      5.92994
      19.4174      5.93822
      19.5116      5.94667
      19.6063      5.95534
      19.7014      5.96428
      19.7970      5.97360
      19.8930      5.98335
      19.9894      5.99357
      20.0863      6.00426
      20.1836      6.01546
      20.2814      6.02704
      20.3796      6.03892
      20.4783      6.05100
      20.5774      6.06329
      20.6770      6.07574
      20.7771      6.08841
      20.8776      6.10128
      20.9786      6.11435
      21.0800      6.12768
      21.1820      6.14126
      21.2844      6.15507
      21.3872      6.16907
      21.4905      6.18324
      21.5944      6.19746
      21.6986      6.21170
      21.8034      6.22576
      21.9087      6.23962
      22.0144      6.25320
      22.1206      6.26676
      22.2274      6.28046
      22.3346      6.29451
      22.4423      6.30898
      22.5505      6.32393
      22.6592      6.33937
      22.7684      6.35535
      22.8781      6.37177
      22.9883      6.38849
      23.0991      6.40529
      23.2103      6.42194
      23.3220      6.43833
      23.4343      6.45417
      23.5471      6.46932
      23.6604      6.48369
      23.7742      6.49734
      23.8886      6.51056
      24.0035      6.52380
      24.1189      6.53738
      24.2348      6.55146
      24.3513      6.56600
      24.4683      6.58087
      24.5859      6.59591
      24.7040      6.61095
      24.8226      6.62598
      24.9418      6.64089
      25.0615      6.65556
      25.1818      6.66984
      25.3027      6.68349
      25.4241      6.69622
      25.5461      6.70790
      25.6686      6.71864
      25.7917      6.72871
      25.9153      6.73834
      26.0396      6.74770
      26.1644      6.75686
      26.2898      6.76583
      26.4157      6.77464
      26.5423      6.78330
      26.6694      6.79186
      26.7971      6.80033
      26.9254      6.80873
      27.0543      6.81710
      27.1838      6.82546
      27.3139      6.83383
      27.4446      6.84224
      27.5759      6.85071
      27.7078      6.85924
      27.8403      6.86786
      27.9734      6.87656
      28.1072      6.88535
      28.2415      6.89423
      28.3765      6.90320
      28.5121      6.91227
      28.6483      6.92144
      28.7852      6.93069
      28.9226      6.94004
      29.0608      6.94948
      29.1995      6.95902
      29.3389      6.96865
      29.4789      6.97839
      29.6196      6.98823
      29.7610      6.99819
      29.9030      7.00825
      30.0456      7.01842
      30.1889      7.02871
      30.3329      7.03911
      30.4775      7.04963
      30.6228      7.06027
      30.7687      7.07102
      30.9154      7.08189
      31.0627      7.09288
      31.2107      7.10399
      31.3594      7.11521
      31.5087      7.12656
      31.6588      7.13803
      31.8095      7.14961
      31.9610      7.16133
      32.1131      7.17316
      32.2660      7.18512
      32.4195      7.19720
      32.5738      7.20941
      32.7287      7.22174
      32.8844      7.23419
      33.0408      7.24678
      33.1979      7.25949
      33.3558      7.27233
      33.5144      7.28529
      33.6737      7.29839
      33.8337      7.31161
      33.9945      7.32497
      34.1560      7.33846
      34.3183      7.35208
      34.4813      7.36583
      34.6451      7.37971
      34.8096      7.39373
      34.9749      7.40788
      35.1410      7.42217
      35.3078      7.43659
      35.4754      7.45114
      35.6438      7.46584
      35.8129      7.48067
      35.9828      7.49564
      36.1535      7.51074
      36.3250      7.52599
      36.4973      7.54137
      36.6704      7.55690
      36.8443      7.57257
      37.0189      7.58838
      37.1944      7.60433
      37.3707      7.62042
      37.5478      7.63666
      37.7258      7.65304
      37.9045      7.66957
      38.0841      7.68624
      38.2645      7.70306
      38.4457      7.72003
      38.6278      7.73715
      38.8107      7.75442
      38.9945      7.77183
      39.1791      7.78940
      39.3645      7.80712
      39.5509      7.82498
      39.7380      7.84300
      39.9261      7.86118
      40.1150      7.87950
      40.3048      7.89799
      40.4954      7.91663
      40.6869      7.93542
      40.8794      7.95436
      41.0727      7.97347
      41.2669      7.99273
      41.4620      8.01215
      41.6580      8.03173
      41.8549      8.05147
      42.0527      8.07137
      42.2514      8.09143
      42.4510      8.11165
      42.6516      8.13204
      42.8531      8.15259
      43.0555      8.17331
      43.2588      8.19419
      43.4631      8.21523
      43.6684      8.23643
      43.8745      8.25780
      44.0817      8.27934
      44.2898      8.30104
      44.4988      8.32292
      44.7088      8.34497
      44.9198      8.36718
      45.1318      8.38957
      45.3447      8.41213
      45.5586      8.43487
      45.7735      8.45777
      45.9894      8.48085
      46.2063      8.50410
      46.4242      8.52752
      46.6431      8.55111
      46.8630      8.57489
      47.0839      8.59884
      47.3059      8.62297
      47.5289      8.64728
      47.7528      8.67176
      47.9779      8.69641
      48.2040      8.72125
      48.4311      8.74627
      48.6592      8.77146
      48.8884      8.79685
      49.1187      8.82242
      49.3501      8.84818
      49.5825      8.87414
      49.8159      8.90029
      50.0505      8.92662
      50.2861      8.95316
      50.5229      8.97987
      50.7607      9.00677
      50.9996      9.03386
      51.2396      9.06114
      51.4808      9.08861
      51.7230      9.11627
      51.9663      9.14413
      52.2108      9.17219
      52.4564      9.20044
      52.7032      9.22890
      52.9511      9.25754
      53.2001      9.28638
      53.4503      9.31541
      53.7016      9.34463
      53.9541      9.37405
      54.2077      9.40366
      54.4626      9.43350
      54.7186      9.46354
      54.9758      9.49381
      55.2341      9.52430
      55.4937      9.55499
      55.7545      9.58589
      56.0164      9.61699
      56.2796      9.64828
      56.5440      9.67978
      56.8096      9.71149
      57.0765      9.74341
      57.3445      9.77552
      57.6138      9.80785
      57.8844      9.84040
      58.1562      9.87317
      58.4292      9.90617
      58.7035      9.93941
      58.9791      9.97286
      59.2560      10.0065
      59.5341      10.0404
      59.8135      10.0746
      60.0942      10.1089
      60.3762      10.1436
      60.6595      10.1786
      60.9441      10.2139
      61.2300      10.2494
      61.5173      10.2854
      61.8058      10.3216
      62.0957      10.3582
      62.3870      10.3952
      62.6796      10.4325
      62.9735      10.4704
      63.2688      10.5088
      63.5654      10.5476
      63.8634      10.5871
      64.1628      10.6272
      64.4636      10.6680
      64.7658      10.7096
      65.0694      10.7519
      65.3743      10.7951
      65.6807      10.8393
      65.9885      10.8844
      66.2977      10.9308
      66.6083      10.9784
      66.9204      11.0273
      67.2339      11.0778
      67.5488      11.1299
      67.8652      11.1839
      68.1831      11.2398
      68.5024      11.2981
      68.8232      11.3589
      69.1455      11.4226
      69.4693      11.4895
      69.7946      11.5600
      70.1214      11.6348
      70.4496      11.7144
      70.7794      11.7996
      71.1108      11.8914
      71.4436      11.9911
      71.7780      12.1002
      72.1139      12.2210
      72.4514      12.3563
      72.7904      12.5103
      73.1310      12.6895
      73.4732      12.9039
      73.8169      13.1711
      74.1623      13.5261
      74.5092      14.0567
      74.8578      15.1367
      75.2079         -NaN
      75.5597         -NaN
      75.9130         -NaN
      76.2681         -NaN
      76.6247         -NaN
      76.9830         -NaN
      77.3430         -NaN
      77.7046         -NaN
      78.0679         -NaN
      78.4328         -NaN
      78.7995         -NaN
      79.1678         -NaN
      79.5378         -NaN
      79.9096         -NaN
      80.2830         -NaN
      80.6582         -NaN
      81.0352         -NaN
      81.4138         -NaN
      81.7942         -NaN
      82.1764         -NaN
      82.5603         -NaN
      82.9460         -NaN
      83.3335         -NaN
      83.7227         -NaN
      84.1138         -NaN
      84.5067         -NaN
      84.9014         -NaN
      85.2979         -NaN
      85.6962         -NaN
      86.0964         -NaN
      86.4984         -NaN
      86.9023         -NaN
      87.3080         -NaN
      87.7156         -NaN
      88.1251         -NaN
      88.5365         -NaN
      88.9498         -NaN
      89.3649         -NaN
      89.7820         -NaN
      90.2011         -NaN
      90.6221         -NaN
      91.0450         -NaN
      91.4698         -NaN
      91.8967         -NaN
      92.3254         -NaN
      92.7562         -NaN
      93.1890         -NaN
      93.6237         -NaN
      94.0605         -NaN
      94.4993         -NaN
      94.9401         -NaN
      95.3829         -NaN
      95.8278         -NaN
      96.2747         -NaN
      96.7237         -NaN
      97.1748         -NaN
      97.6279         -NaN
      98.0832         -NaN
      98.5406         -NaN

----------------------------------------------------------------------
SPECTRUM: CWW_Im_ext
FILTER:        SDSS r + CCD, [MT]  no atmosphere (Ref. F. Castander)
----------------------------------------------------------------------
      0.00000      0.00000
   0.00461578  0.000106257
   0.00925291  0.000214573
    0.0139114  0.000319515
    0.0185914  0.000398312
    0.0232930  0.000405816
    0.0280163  0.000310975
    0.0327615  9.53856e-05
    0.0375284 -0.000207237
    0.0423174 -0.000575209
    0.0471286 -0.000987092
    0.0519619  -0.00140017
    0.0568175  -0.00178540
    0.0616956  -0.00215455
    0.0665962  -0.00255841
    0.0715193  -0.00307676
    0.0764652  -0.00390375
    0.0814340  -0.00546376
    0.0864257  -0.00819992
    0.0914403   -0.0124245
    0.0964782   -0.0182608
     0.101539   -0.0254678
     0.106624   -0.0330910
     0.111732   -0.0408057
     0.116863   -0.0478874
     0.122018   -0.0545052
     0.127198   -0.0608510
     0.132400   -0.0668482
     0.137627   -0.0717565
     0.142878   -0.0758939
     0.148154   -0.0797696
     0.153453   -0.0833660
     0.158777   -0.0867692
     0.164126   -0.0899612
     0.169499   -0.0925903
     0.174898   -0.0942167
     0.180321   -0.0963035
     0.185769   -0.0985340
     0.191242    -0.100626
     0.196741    -0.102557
     0.202264    -0.104483
     0.207814    -0.106009
     0.213389    -0.108159
     0.218990    -0.110985
     0.224616    -0.113784
     0.230269    -0.116315
     0.235947    -0.118644
     0.241652    -0.120400
     0.247383    -0.121472
     0.253141    -0.122955
     0.258925    -0.124645
     0.264736    -0.126511
     0.270574    -0.128584
     0.276439    -0.130527
     0.282331    -0.131257
     0.288249    -0.131994
     0.294196    -0.132894
     0.300170    -0.133798
     0.306171    -0.134694
     0.312200    -0.135518
     0.318257    -0.135782
     0.324342    -0.135744
     0.330454    -0.136243
     0.336596    -0.136983
     0.342765    -0.137793
     0.348963    -0.138574
     0.355189    -0.138962
     0.361445    -0.137751
     0.367729    -0.135257
     0.374042    -0.130378
     0.380384    -0.122738
     0.386756    -0.113379
     0.393157    -0.103859
     0.399587   -0.0951088
     0.406048   -0.0876779
     0.412538   -0.0815621
     0.419057   -0.0760481
     0.425608   -0.0707433
     0.432188   -0.0659468
     0.438799   -0.0618158
     0.445440   -0.0583774
     0.452112   -0.0555863
     0.458814   -0.0535701
     0.465548   -0.0523767
     0.472312   -0.0518146
     0.479108   -0.0516007
     0.485936   -0.0512758
     0.492794   -0.0500570
     0.499685   -0.0479656
     0.506607   -0.0451310
     0.513561   -0.0414039
     0.520548   -0.0366625
     0.527566   -0.0311217
     0.534617   -0.0247422
     0.541700   -0.0178433
     0.548817   -0.0110405
     0.555966  -0.00414935
     0.563148   0.00295978
     0.570363    0.0101170
     0.577611    0.0172876
     0.584893    0.0248670
     0.592209    0.0325483
     0.599558    0.0402294
     0.606941    0.0479995
     0.614359    0.0557060
     0.621810    0.0631562
     0.629296    0.0708341
     0.636817    0.0786254
     0.644372    0.0863174
     0.651962    0.0943502
     0.659587     0.102862
     0.667247     0.111693
     0.674943     0.120890
     0.682674     0.130442
     0.690441     0.139747
     0.698244     0.148851
     0.706082     0.158071
     0.713957     0.167532
     0.721869     0.177030
     0.729816     0.186829
     0.737801     0.196232
     0.745822     0.204919
     0.753881     0.213327
     0.761976     0.221755
     0.770109     0.230219
     0.778279     0.239008
     0.786488     0.248078
     0.794734     0.256705
     0.803018     0.264851
     0.811340     0.272558
     0.819701     0.280006
     0.828100     0.287815
     0.836538     0.297354
     0.845015     0.308897
     0.853532     0.322147
     0.862087     0.336108
     0.870682     0.349208
     0.879317     0.360197
     0.887991     0.368506
     0.896706     0.374235
     0.905461     0.377950
     0.914256     0.380384
     0.923092     0.382047
     0.931968     0.383275
     0.940886     0.384279
     0.949845     0.385217
     0.958845     0.386196
     0.967886     0.387268
     0.976970     0.388416
     0.986095     0.389574
     0.995262     0.390671
      1.00447     0.391647
      1.01372     0.392478
      1.02302     0.393161
      1.03236     0.393699
      1.04174     0.394100
      1.05116     0.394365
      1.06063     0.394493
      1.07014     0.394478
      1.07970     0.394321
      1.08930     0.394021
      1.09894     0.393580
      1.10863     0.393000
      1.11836     0.392286
      1.12814     0.391441
      1.13796     0.390474
      1.14783     0.389389
      1.15774     0.388187
      1.16770     0.386873
      1.17771     0.385446
      1.18776     0.383910
      1.19786     0.382268
      1.20800     0.380525
      1.21820     0.378686
      1.22844     0.376756
      1.23872     0.374739
      1.24905     0.372638
      1.25944     0.370456
      1.26986     0.368196
      1.28034     0.365859
      1.29087     0.363449
      1.30144     0.360972
      1.31206     0.358431
      1.32274     0.355831
      1.33346     0.353175
      1.34423     0.350468
      1.35505     0.347713
      1.36592     0.344909
      1.37684     0.342061
      1.38781     0.339170
      1.39883     0.336240
      1.40991     0.333277
      1.42103     0.330283
      1.43220     0.327261
      1.44343     0.324213
      1.45471     0.321139
      1.46604     0.318043
      1.47742     0.314926
      1.48886     0.311789
      1.50035     0.308635
      1.51189     0.305465
      1.52348     0.302280
      1.53513     0.299080
      1.54683     0.295867
      1.55859     0.292641
      1.57040     0.289405
      1.58226     0.286161
      1.59418     0.282912
      1.60615     0.279660
      1.61818     0.276405
      1.63027     0.273150
      1.64241     0.269894
      1.65461     0.266639
      1.66686     0.263385
      1.67917     0.260135
      1.69153     0.256891
      1.70396     0.253653
      1.71644     0.250422
      1.72898     0.247199
      1.74157     0.243986
      1.75423     0.240784
      1.76694     0.237597
      1.77971     0.234428
      1.79254     0.231279
      1.80543     0.228154
      1.81838     0.225055
      1.83139     0.221980
      1.84446     0.218934
      1.85759     0.215916
      1.87078     0.212927
      1.88403     0.209970
      1.89734     0.207047
      1.91072     0.204161
      1.92415     0.201317
      1.93765     0.198517
      1.95121     0.195766
      1.96483     0.193063
      1.97852     0.190412
      1.99226     0.187814
      2.00608     0.185270
      2.01995     0.182779
      2.03389     0.180342
      2.04789     0.177961
      2.06196     0.175641
      2.07610     0.173384
      2.09030     0.171195
      2.10456     0.169078
      2.11889     0.167036
      2.13329     0.165070
      2.14775     0.163183
      2.16228     0.161376
      2.17687     0.159649
      2.19154     0.158005
      2.20627     0.156444
      2.22107     0.154966
      2.23594     0.153575
      2.25087     0.152272
      2.26588     0.151057
      2.28095     0.149930
      2.29610     0.148895
      2.31131     0.147948
      2.32660     0.147092
      2.34195     0.146325
      2.35738     0.145647
      2.37287     0.145057
      2.38844     0.144557
      2.40408     0.144147
      2.41979     0.143828
      2.43558     0.143600
      2.45144     0.143462
      2.46737     0.143412
      2.48337     0.143445
      2.49945     0.143561
      2.51560     0.143754
      2.53183     0.144027
      2.54813     0.144375
      2.56451     0.144802
      2.58096     0.145304
      2.59749     0.145883
      2.61410     0.146538
      2.63078     0.147268
      2.64754     0.148067
      2.66438     0.148927
      2.68129     0.149843
      2.69828     0.150807
      2.71535     0.151805
      2.73250     0.152808
      2.74973     0.153769
      2.76704     0.154634
      2.78443     0.155356
      2.80189     0.155885
      2.81944     0.156262
      2.83707     0.156588
      2.85478     0.156969
      2.87258     0.157500
      2.89045     0.158224
      2.90841     0.159117
      2.92645     0.160218
      2.94457     0.161420
      2.96278     0.162423
      2.98107     0.163024
      2.99945     0.163106
      3.01791     0.162704
      3.03645     0.161918
      3.05509     0.160754
      3.07380     0.158971
      3.09261     0.156710
      3.11150     0.154249
      3.13048     0.151739
      3.14954     0.149073
      3.16869     0.146226
      3.18794     0.143061
      3.20727     0.139736
      3.22669     0.136658
      3.24620     0.133653
      3.26580     0.130391
      3.28549     0.126753
      3.30527     0.122938
      3.32514     0.119128
      3.34510     0.115688
      3.36516     0.112241
      3.38531     0.108655
      3.40555     0.104873
      3.42588     0.101270
      3.44631    0.0979833
      3.46684    0.0954087
      3.48745    0.0937386
      3.50817    0.0931861
      3.52898    0.0938395
      3.54988    0.0955054
      3.57088    0.0974838
      3.59198    0.0992252
      3.61318     0.100756
      3.63447     0.101913
      3.65586     0.102904
      3.67735     0.103538
      3.69894     0.103696
      3.72063     0.103282
      3.74242     0.102504
      3.76431     0.101261
      3.78630    0.0998261
      3.80839    0.0983189
      3.83059    0.0967162
      3.85288    0.0947149
      3.87529    0.0922471
      3.89779    0.0894787
      3.92039    0.0858979
      3.94311    0.0819294
      3.96592    0.0777682
      3.98884    0.0739902
      4.01187    0.0712147
      4.03501    0.0696534
      4.05825    0.0683654
      4.08159    0.0674387
      4.10505    0.0668427
      4.12861    0.0666482
      4.15229    0.0665913
      4.17607    0.0666807
      4.19996    0.0665651
      4.22396    0.0660814
      4.24808    0.0656876
      4.27230    0.0655810
      4.29663    0.0656349
      4.32108    0.0661890
      4.34564    0.0678325
      4.37032    0.0702855
      4.39511    0.0737655
      4.42001    0.0777491
      4.44503    0.0817566
      4.47016    0.0852560
      4.49541    0.0888386
      4.52077    0.0928105
      4.54626    0.0974540
      4.57186     0.102804
      4.59758     0.108915
      4.62341     0.114756
      4.64937     0.119557
      4.67545     0.122770
      4.70164     0.123738
      4.72796     0.122989
      4.75440     0.121677
      4.78096     0.121436
      4.80764     0.122455
      4.83445     0.125107
      4.86138     0.128990
      4.88844     0.134772
      4.91562     0.142714
      4.94292     0.153979
      4.97035     0.167612
      4.99791     0.183205
      5.02560     0.200678
      5.05341     0.220283
      5.08135     0.241329
      5.10942     0.263391
      5.13762     0.286104
      5.16595     0.309468
      5.19441     0.334442
      5.22300     0.361353
      5.25173     0.390129
      5.28058     0.419494
      5.30957     0.450250
      5.33870     0.481420
      5.36796     0.512837
      5.39735     0.544618
      5.42688     0.577789
      5.45654     0.611981
      5.48634     0.648134
      5.51628     0.686377
      5.54636     0.727121
      5.57658     0.770653
      5.60693     0.816815
      5.63743     0.864438
      5.66807     0.910009
      5.69885     0.953485
      5.72977     0.994398
      5.76083      1.03424
      5.79204      1.07564
      5.82339      1.12137
      5.85488      1.17092
      5.88652      1.22404
      5.91831      1.27871
      5.95024      1.33350
      5.98232      1.38737
      6.01455      1.44002
      6.04693      1.49051
      6.07946      1.53718
      6.11213      1.58364
      6.14496      1.63504
      6.17794      1.69548
      6.21107      1.76616
      6.24436      1.84563
      6.27780      1.93057
      6.31139      2.01820
      6.34514      2.10549
      6.37904      2.18927
      6.41310      2.26621
      6.44732      2.33405
      6.48170      2.39046
      6.51623      2.43449
      6.55092      2.46612
      6.58578      2.48710
      6.62079      2.50008
      6.65597      2.50826
      6.69130      2.51360
      6.72681      2.51774
      6.76247      2.52149
      6.79830      2.52517
      6.83430      2.52879
      6.87046      2.53240
      6.90679      2.53589
      6.94328      2.53918
      6.97995      2.54257
      7.01678      2.54594
      7.05378      2.54928
      7.09096      2.55237
      7.12831      2.55512
      7.16582      2.55730
      7.20352      2.55906
      7.24138      2.56020
      7.27942      2.56100
      7.31764      2.56174
      7.35603      2.56290
      7.39460      2.56478
      7.43335      2.56732
      7.47227      2.57010
      7.51138      2.57295
      7.55067      2.57598
      7.59014      2.57907
      7.62979      2.58231
      7.66962      2.58548
      7.70964      2.58846
      7.74984      2.59109
      7.79023      2.59368
      7.83080      2.59620
      7.87156      2.59894
      7.91251      2.60206
      7.95365      2.60563
      7.99498      2.60939
      8.03649      2.61346
      8.07821      2.61785
      8.12011      2.62258
      8.16220      2.62792
      8.20450      2.63376
      8.24698      2.63975
      8.28966      2.64570
      8.33254      2.65172
      8.37562      2.65752
      8.41890      2.66340
      8.46237      2.66933
      8.50605      2.67514
      8.54993      2.68060
      8.59401      2.68607
      8.63829      2.69138
      8.68278      2.69630
      8.72747      2.70073
      8.77237      2.70440
      8.81748      2.70744
      8.86279      2.71060
      8.90832      2.71471
      8.95405      2.71979
      9.00000      2.72600
      9.04616      2.73290
      9.09253      2.74021
      9.13911      2.74781
      9.18591      2.75593
      9.23293      2.76447
      9.28016      2.77342
      9.32762      2.78249
      9.37529      2.79123
      9.42317      2.79927
      9.47128      2.80650
      9.51962      2.81289
      9.56818      2.81866
      9.61696      2.82420
      9.66596      2.82982
      9.71519      2.83572
      9.76465      2.84213
      9.81434      2.84926
      9.86426      2.85712
      9.91440      2.86575
      9.96478      2.87507
      10.0154      2.88504
      10.0662      2.89555
      10.1173      2.90655
      10.1686      2.91812
      10.2202      2.92980
      10.2720      2.94102
      10.3240      2.95159
      10.3763      2.96163
      10.4288      2.97109
      10.4815      2.98017
      10.5345      2.98930
      10.5878      2.99886
      10.6413      3.00944
      10.6950      3.02144
      10.7490      3.03447
      10.8032      3.04789
      10.8577      3.06175
      10.9124      3.07600
      10.9674      3.09071
      11.0226      3.10605
      11.0781      3.12188
      11.1339      3.13756
      11.1899      3.15280
      11.2462      3.16759
      11.3027      3.18156
      11.3595      3.19470
      11.4165      3.20709
      11.4738      3.21834
      11.5314      3.22811
      11.5893      3.23685
      11.6474      3.24476
      11.7057      3.25228
      11.7644      3.26003
      11.8233      3.26835
      11.8825      3.27718
      11.9420      3.28681
      12.0017      3.29749
      12.0617      3.30916
      12.1220      3.32185
      12.1826      3.33567
      12.2434      3.35021
      12.3045      3.36512
      12.3660      3.38059
      12.4277      3.39633
      12.4896      3.41188
      12.5519      3.42647
      12.6144      3.43894
      12.6773      3.44870
      12.7404      3.45664
      12.8038      3.46377
      12.8676      3.47064
      12.9316      3.47751
      12.9959      3.48435
      13.0605      3.49133
      13.1254      3.49851
      13.1906      3.50625
      13.2561      3.51487
      13.3219      3.52455
      13.3880      3.53528
      13.4544      3.54683
      13.5211      3.55872
      13.5881      3.57057
      13.6555      3.58211
      13.7231      3.59321
      13.7911      3.60393
      13.8594      3.61433
      13.9279      3.62464
      13.9968      3.63501
      14.0661      3.64571
      14.1356      3.65706
      14.2055      3.66936
      14.2757      3.68295
      14.3462      3.69796
      14.4170      3.71431
      14.4882      3.73185
      14.5597      3.75047
      14.6315      3.76998
      14.7036      3.79034
      14.7761      3.81137
      14.8489      3.83286
      14.9221      3.85457
      14.9956      3.87633
      15.0694      3.89803
      15.1436      3.91975
      15.2181      3.94179
      15.2930      3.96442
      15.3682      3.98776
      15.4437      4.01200
      15.5196      4.03727
      15.5959      4.06361
      15.6725      4.09117
      15.7494      4.12001
      15.8267      4.15004
      15.9044      4.18116
      15.9824      4.21333
      16.0608      4.24626
      16.1396      4.27964
      16.2187      4.31320
      16.2982      4.34655
      16.3780      4.37934
      16.4582      4.41140
      16.5388      4.44238
      16.6198      4.47184
      16.7011      4.49966
      16.7828      4.52565
      16.8649      4.54976
      16.9473      4.57222
      17.0302      4.59366
      17.1134      4.61482
      17.1970      4.63652
      17.2810      4.65931
      17.3654      4.68348
      17.4502      4.70904
      17.5353      4.73601
      17.6209      4.76412
      17.7068      4.79313
      17.7932      4.82279
      17.8799      4.85271
      17.9671      4.88224
      18.0546      4.91070
      18.1426      4.93739
      18.2309      4.96183
      18.3197      4.98380
      18.4089      5.00333
      18.4984      5.02062
      18.5884      5.03600
      18.6789      5.04974
      18.7697      5.06200
      18.8609      5.07287
      18.9526      5.08263
      19.0447      5.09160
      19.1372      5.10017
      19.2302      5.10862
      19.3236      5.11711
      19.4174      5.12565
      19.5116      5.13438
      19.6063      5.14334
      19.7014      5.15261
      19.7970      5.16228
      19.8930      5.17244
      19.9894      5.18312
      20.0863      5.19432
      20.1836      5.20610
      20.2814      5.21828
      20.3796      5.23082
      20.4783      5.24357
      20.5774      5.25655
      20.6770      5.26969
      20.7771      5.28310
      20.8776      5.29670
      20.9786      5.31054
      21.0800      5.32466
      21.1820      5.33906
      21.2844      5.35371
      21.3872      5.36857
      21.4905      5.38360
      21.5944      5.39869
      21.6986      5.41378
      21.8034      5.42865
      21.9087      5.44327
      22.0144      5.45756
      22.1206      5.47180
      22.2274      5.48619
      22.3346      5.50097
      22.4423      5.51622
      22.5505      5.53201
      22.6592      5.54836
      22.7684      5.56531
      22.8781      5.58278
      22.9883      5.60057
      23.0991      5.61844
      23.2103      5.63613
      23.3220      5.65351
      23.4343      5.67023
      23.5471      5.68614
      23.6604      5.70110
      23.7742      5.71521
      23.8886      5.72881
      24.0035      5.74240
      24.1189      5.75638
      24.2348      5.77092
      24.3513      5.78599
      24.4683      5.80142
      24.5859      5.81705
      24.7040      5.83265
      24.8226      5.84823
      24.9418      5.86364
      25.0615      5.87876
      25.1818      5.89341
      25.3027      5.90729
      25.4241      5.92006
      25.5461      5.93158
      25.6686      5.94199
      25.7917      5.95158
      25.9153      5.96064
      26.0396      5.96936
      26.1644      5.97781
      26.2898      5.98603
      26.4157      5.99405
      26.5423      6.00188
      26.6694      6.00955
      26.7971      6.01712
      26.9254      6.02461
      27.0543      6.03204
      27.1838      6.03944
      27.3139      6.04684
      27.4446      6.05428
      27.5759      6.06177
      27.7078      6.06934
      27.8403      6.07697
      27.9734      6.08469
      28.1072      6.09250
      28.2415      6.10041
      28.3765      6.10841
      28.5121      6.11650
      28.6483      6.12469
      28.7852      6.13297
      28.9226      6.14135
      29.0608      6.14981
      29.1995      6.15837
      29.3389      6.16702
      29.4789      6.17578
      29.6196      6.18465
      29.7610      6.19363
      29.9030      6.20272
      30.0456      6.21194
      30.1889      6.22127
      30.3329      6.23072
      30.4775      6.24029
      30.6228      6.24998
      30.7687      6.25979
      30.9154      6.26972
      31.0627      6.27977
      31.2107      6.28994
      31.3594      6.30023
      31.5087      6.31064
      31.6588      6.32117
      31.8095      6.33183
      31.9610      6.34262
      32.1131      6.35353
      32.2660      6.36456
      32.4195      6.37573
      32.5738      6.38703
      32.7287      6.39845
      32.8844      6.41001
      33.0408      6.42170
      33.1979      6.43352
      33.3558      6.44548
      33.5144      6.45756
      33.6737      6.46978
      33.8337      6.48214
      33.9945      6.49462
      34.1560      6.50724
      34.3183      6.51999
      34.4813      6.53287
      34.6451      6.54589
      34.8096      6.55905
      34.9749      6.57234
      35.1410      6.58578
      35.3078      6.59935
      35.4754      6.61306
      35.6438      6.62692
      35.8129      6.64091
      35.9828      6.65505
      36.1535      6.66932
      36.3250      6.68374
      36.4973      6.69830
      36.6704      6.71301
      36.8443      6.72786
      37.0189      6.74287
      37.1944      6.75802
      37.3707      6.77332
      37.5478      6.78876
      37.7258      6.80435
      37.9045      6.82009
      38.0841      6.83597
      38.2645      6.85200
      38.4457      6.86819
      38.6278      6.88453
      38.8107      6.90102
      38.9945      6.91766
      39.1791      6.93446
      39.3645      6.95142
      39.5509      6.96853
      39.7380      6.98579
      39.9261      7.00322
      40.1150      7.02080
      40.3048      7.03854
      40.4954      7.05644
      40.6869      7.07450
      40.8794      7.09272
      41.0727      7.11110
      41.2669      7.12964
      41.4620      7.14834
      41.6580      7.16721
      41.8549      7.18624
      42.0527      7.20543
      42.2514      7.22478
      42.4510      7.24431
      42.6516      7.26400
      42.8531      7.28385
      43.0555      7.30388
      43.2588      7.32408
      43.4631      7.34444
      43.6684      7.36496
      43.8745      7.38565
      44.0817      7.40652
      44.2898      7.42756
      44.4988      7.44878
      44.7088      7.47016
      44.9198      7.49172
      45.1318      7.51346
      45.3447      7.53537
      45.5586      7.55746
      45.7735      7.57972
      45.9894      7.60216
      46.2063      7.62478
      46.4242      7.64757
      46.6431      7.67054
      46.8630      7.69370
      47.0839      7.71703
      47.3059      7.74055
      47.5289      7.76424
      47.7528      7.78812
      47.9779      7.81217
      48.2040      7.83641
      48.4311      7.86083
      48.6592      7.88543
      48.8884      7.91022
      49.1187      7.93521
      49.3501      7.96038
      49.5825      7.98575
      49.8159      8.01131
      50.0505      8.03707
      50.2861      8.06302
      50.5229      8.08916
      50.7607      8.11549
      50.9996      8.14201
      51.2396      8.16873
      51.4808      8.19564
      51.7230      8.22275
      51.9663      8.25006
      52.2108      8.27757
      52.4564      8.30527
      52.7032      8.33319
      52.9511      8.36130
      53.2001      8.38960
      53.4503      8.41810
      53.7016      8.44680
      53.9541      8.47569
      54.2077      8.50479
      54.4626      8.53411
      54.7186      8.56364
      54.9758      8.59340
      55.2341      8.62337
      55.4937      8.65356
      55.7545      8.68395
      56.0164      8.71455
      56.2796      8.74535
      56.5440      8.77635
      56.8096      8.80756
      57.0765      8.83899
      57.3445      8.87063
      57.6138      8.90248
      57.8844      8.93454
      58.1562      8.96684
      58.4292      8.99936
      58.7035      9.03211
      58.9791      9.06509
      59.2560      9.09829
      59.5341      9.13171
      59.8135      9.16537
      60.0942      9.19928
      60.3762      9.23347
      60.6595      9.26796
      60.9441      9.30277
      61.2300      9.33790
      61.5173      9.37334
      61.8058      9.40912
      62.0957      9.44525
      62.3870      9.48178
      62.6796      9.51872
      62.9735      9.55612
      63.2688      9.59402
      63.5654      9.63246
      63.8634      9.67147
      64.1628      9.71111
      64.4636      9.75142
      64.7658      9.79246
      65.0694      9.83429
      65.3743      9.87698
      65.6807      9.92060
      65.9885      9.96524
      66.2977      10.0110
      66.6083      10.0580
      66.9204      10.1063
      67.2339      10.1561
      67.5488      10.2075
      67.8652      10.2608
      68.1831      10.3160
      68.5024      10.3734
      68.8232      10.4333
      69.1455      10.4960
      69.4693      10.5618
      69.7946      10.6311
      70.1214      10.7045
      70.4496      10.7826
      70.7794      10.8660
      71.1108      10.9558
      71.4436      11.0530
      71.7780      11.1593
      72.1139      11.2765
      72.4514      11.4073
      72.7904      11.5557
      73.1310      11.7272
      73.4732      11.9306
      73.8169      12.1809
      74.1623      12.5066
      74.5092      12.9739
      74.8578      13.8118
      75.2079         -NaN
      75.5597         -NaN
      75.9130         -NaN
      76.2681         -NaN
      76.6247         -NaN
      76.9830         -NaN
      77.3430         -NaN
      77.7046         -NaN
      78.0679         -NaN
      78.4328         -NaN
      78.7995         -NaN
      79.1678         -NaN
      79.5378         -NaN
      79.9096         -NaN
      80.2830         -NaN
      80.6582         -NaN
      81.0352         -NaN
      81.4138         -NaN
      81.7942         -NaN
      82.1764         -NaN
      82.5603         -NaN
      82.9460         -NaN
      83.3335         -NaN
      83.7227         -NaN
      84.1138         -NaN
      84.5067         -NaN
      84.9014         -NaN
      85.2979         -NaN
      85.6962         -NaN
      86.0964         -NaN
      86.4984         -NaN
      86.9023         -NaN
      87.3080         -NaN
      87.7156         -NaN
      88.1251         -NaN
      88.5365         -NaN
      88.9498         -NaN
      89.3649         -NaN
      89.7820         -NaN
      90.2011         -NaN
      90.6221         -NaN
      91.0450         -NaN
      91.4698         -NaN
      91.8967         -NaN
      92.3254         -NaN
      92.7562         -NaN
      93.1890         -NaN
      93.6237         -NaN
      94.0605         -NaN
      94.4993         -NaN
      94.9401         -NaN
      95.3829         -NaN
      95.8278         -NaN
      96.2747         -NaN
      96.7237         -NaN
      97.1748         -NaN
      97.6279         -NaN
      98.0832         -NaN
      98.5406         -NaN

