----------------------------------------------------------------------
SPECTRUM: CWW_E_ext
FILTER:        SDSS u + CCD, [MT]  no atmosphere (Ref. F. Castander)
----------------------------------------------------------------------
      0.00000      0.00000
   0.00461578    0.0117527
   0.00925291    0.0233983
    0.0139114    0.0354386
    0.0185914    0.0482502
    0.0232930    0.0621981
    0.0280163    0.0773884
    0.0327615    0.0939880
    0.0375284     0.111908
    0.0423174     0.130947
    0.0471286     0.150941
    0.0519619     0.171676
    0.0568175     0.192954
    0.0616956     0.214553
    0.0665962     0.236321
    0.0715193     0.258082
    0.0764652     0.279891
    0.0814340     0.301758
    0.0864257     0.323856
    0.0914403     0.346339
    0.0964782     0.369365
     0.101539     0.392993
     0.106624     0.417294
     0.111732     0.442320
     0.116863     0.468086
     0.122018     0.494658
     0.127198     0.522025
     0.132400     0.550181
     0.137627     0.579090
     0.142878     0.608839
     0.148154     0.639332
     0.153453     0.670641
     0.158777     0.702806
     0.164126     0.735902
     0.169499     0.769976
     0.174898     0.805229
     0.180321     0.841735
     0.185769     0.879530
     0.191242     0.918663
     0.196741     0.959087
     0.202264      1.00071
     0.207814      1.04338
     0.213389      1.08693
     0.218990      1.13098
     0.224616      1.17524
     0.230269      1.21936
     0.235947      1.26315
     0.241652      1.30655
     0.247383      1.34970
     0.253141      1.39270
     0.258925      1.43578
     0.264736      1.47914
     0.270574      1.52299
     0.276439      1.56757
     0.282331      1.61304
     0.288249      1.65938
     0.294196      1.70651
     0.300170      1.75429
     0.306171      1.80258
     0.312200      1.85123
     0.318257      1.90006
     0.324342      1.94885
     0.330454      1.99738
     0.336596      2.04548
     0.342765      2.09306
     0.348963      2.13999
     0.355189      2.18611
     0.361445      2.23119
     0.367729      2.27504
     0.374042      2.31755
     0.380384      2.35855
     0.386756      2.39795
     0.393157      2.43564
     0.399587      2.47162
     0.406048      2.50588
     0.412538      2.53841
     0.419057      2.56904
     0.425608      2.59769
     0.432188      2.62420
     0.438799      2.64849
     0.445440      2.67055
     0.452112      2.69042
     0.458814      2.70807
     0.465548      2.72355
     0.472312      2.73690
     0.479108      2.74822
     0.485936      2.75768
     0.492794      2.76548
     0.499685      2.77184
     0.506607      2.77696
     0.513561      2.78112
     0.520548      2.78448
     0.527566      2.78723
     0.534617      2.78950
     0.541700      2.79139
     0.548817      2.79296
     0.555966      2.79436
     0.563148      2.79567
     0.570363      2.79703
     0.577611      2.79849
     0.584893      2.80011
     0.592209      2.80191
     0.599558      2.80396
     0.606941      2.80636
     0.614359      2.80917
     0.621810      2.81246
     0.629296      2.81627
     0.636817      2.82067
     0.644372      2.82571
     0.651962      2.83142
     0.659587      2.83777
     0.667247      2.84472
     0.674943      2.85227
     0.682674      2.86042
     0.690441      2.86917
     0.698244      2.87853
     0.706082      2.88846
     0.713957      2.89891
     0.721869      2.90988
     0.729816      2.92133
     0.737801      2.93325
     0.745822      2.94558
     0.753881      2.95828
     0.761976      2.97126
     0.770109      2.98447
     0.778279      2.99784
     0.786488      3.01131
     0.794734      3.02484
     0.803018      3.03837
     0.811340      3.05186
     0.819701      3.06528
     0.828100      3.07862
     0.836538      3.09185
     0.845015      3.10495
     0.853532      3.11787
     0.862087      3.13059
     0.870682      3.14307
     0.879317      3.15530
     0.887991      3.16725
     0.896706      3.17891
     0.905461      3.19025
     0.914256      3.20125
     0.923092      3.21192
     0.931968      3.22226
     0.940886      3.23227
     0.949845      3.24193
     0.958845      3.25119
     0.967886      3.26006
     0.976970      3.26854
     0.986095      3.27661
     0.995262      3.28429
      1.00447      3.29157
      1.01372      3.29845
      1.02302      3.30495
      1.03236      3.31109
      1.04174      3.31692
      1.05116      3.32246
      1.06063      3.32774
      1.07014      3.33275
      1.07970      3.33752
      1.08930      3.34206
      1.09894      3.34637
      1.10863      3.35045
      1.11836      3.35429
      1.12814      3.35787
      1.13796      3.36120
      1.14783      3.36429
      1.15774      3.36716
      1.16770      3.36984
      1.17771      3.37235
      1.18776      3.37472
      1.19786      3.37699
      1.20800      3.37917
      1.21820      3.38126
      1.22844      3.38318
      1.23872      3.38495
      1.24905      3.38651
      1.25944      3.38784
      1.26986      3.38885
      1.28034      3.38943
      1.29087      3.38955
      1.30144      3.38948
      1.31206      3.38915
      1.32274      3.38841
      1.33346      3.38730
      1.34423      3.38585
      1.35505      3.38414
      1.36592      3.38225
      1.37684      3.38012
      1.38781      3.37741
      1.39883      3.37432
      1.40991      3.37091
      1.42103      3.36730
      1.43220      3.36346
      1.44343      3.35953
      1.45471      3.35499
      1.46604      3.34990
      1.47742      3.34473
      1.48886      3.33981
      1.50035      3.33524
      1.51189      3.33089
      1.52348      3.32635
      1.53513      3.32155
      1.54683      3.31722
      1.55859      3.31341
      1.57040      3.30997
      1.58226      3.30640
      1.59418      3.30268
      1.60615      3.29909
      1.61818      3.29637
      1.63027      3.29445
      1.64241      3.29282
      1.65461      3.29085
      1.66686      3.28864
      1.67917      3.28647
      1.69153      3.28484
      1.70396      3.28368
      1.71644      3.28185
      1.72898      3.27923
      1.74157      3.27618
      1.75423      3.27318
      1.76694      3.27033
      1.77971      3.26746
      1.79254      3.26409
      1.80543      3.26076
      1.81838      3.25790
      1.83139      3.25546
      1.84446      3.25314
      1.85759      3.25081
      1.87078      3.24828
      1.88403      3.24548
      1.89734      3.24291
      1.91072      3.24061
      1.92415      3.23828
      1.93765      3.23562
      1.95121      3.23261
      1.96483      3.22909
      1.97852      3.22560
      1.99226      3.22207
      2.00608      3.21840
      2.01995      3.21478
      2.03389      3.21205
      2.04789      3.21015
      2.06196      3.20832
      2.07610      3.20587
      2.09030      3.20287
      2.10456      3.19982
      2.11889      3.19732
      2.13329      3.19546
      2.14775      3.19344
      2.16228      3.19092
      2.17687      3.18783
      2.19154      3.18470
      2.20627      3.18176
      2.22107      3.17945
      2.23594      3.17752
      2.25087      3.17578
      2.26588      3.17417
      2.28095      3.17351
      2.29610      3.17389
      2.31131      3.17535
      2.32660      3.17749
      2.34195      3.17998
      2.35738      3.18298
      2.37287      3.18720
      2.38844      3.19301
      2.40408      3.19979
      2.41979      3.20731
      2.43558      3.21540
      2.45144      3.22438
      2.46737      3.23403
      2.48337      3.24507
      2.49945      3.25695
      2.51560      3.26932
      2.53183      3.28187
      2.54813      3.29512
      2.56451      3.30960
      2.58096      3.32621
      2.59749      3.34445
      2.61410      3.36314
      2.63078      3.38150
      2.64754      3.39995
      2.66438      3.41963
      2.68129      3.44006
      2.69828      3.46099
      2.71535      3.48118
      2.73250      3.50046
      2.74973      3.51959
      2.76704      3.53960
      2.78443      3.56006
      2.80189      3.58065
      2.81944      3.60060
      2.83707      3.61970
      2.85478      3.63825
      2.87258      3.65680
      2.89045      3.67535
      2.90841      3.69289
      2.92645      3.70939
      2.94457      3.72495
      2.96278      3.74004
      2.98107      3.75535
      2.99945      3.77148
      3.01791      3.78827
      3.03645      3.80559
      3.05509      3.82304
      3.07380      3.84005
      3.09261      3.85594
      3.11150      3.87029
      3.13048      3.88256
      3.14954      3.89258
      3.16869      3.90022
      3.18794      3.90545
      3.20727      3.90828
      3.22669      3.90901
      3.24620      3.90792
      3.26580      3.90549
      3.28549      3.90221
      3.30527      3.89838
      3.32514      3.89415
      3.34510      3.88963
      3.36516      3.88494
      3.38531      3.88021
      3.40555      3.87565
      3.42588      3.87121
      3.44631      3.86685
      3.46684      3.86247
      3.48745      3.85804
      3.50817      3.85349
      3.52898      3.84897
      3.54988      3.84449
      3.57088      3.84009
      3.59198      3.83570
      3.61318      3.83123
      3.63447      3.82669
      3.65586      3.82224
      3.67735      3.81799
      3.69894      3.81395
      3.72063      3.81003
      3.74242      3.80608
      3.76431      3.80213
      3.78630      3.79825
      3.80839      3.79452
      3.83059      3.79086
      3.85288      3.78720
      3.87529      3.78342
      3.89779      3.77952
      3.92039      3.77564
      3.94311      3.77191
      3.96592      3.76829
      3.98884      3.76478
      4.01187      3.76132
      4.03501      3.75784
      4.05825      3.75447
      4.08159      3.75129
      4.10505      3.74827
      4.12861      3.74533
      4.15229      3.74251
      4.17607      3.73978
      4.19996      3.73729
      4.22396      3.73503
      4.24808      3.73289
      4.27230      3.73068
      4.29663      3.72842
      4.32108      3.72613
      4.34564      3.72389
      4.37032      3.72176
      4.39511      3.71967
      4.42001      3.71746
      4.44503      3.71507
      4.47016      3.71256
      4.49541      3.70992
      4.52077      3.70735
      4.54626      3.70491
      4.57186      3.70260
      4.59758      3.70039
      4.62341      3.69830
      4.64937      3.69628
      4.67545      3.69442
      4.70164      3.69275
      4.72796      3.69125
      4.75440      3.68982
      4.78096      3.68847
      4.80764      3.68720
      4.83445      3.68603
      4.86138      3.68498
      4.88844      3.68394
      4.91562      3.68283
      4.94292      3.68161
      4.97035      3.68041
      4.99791      3.67929
      5.02560      3.67828
      5.05341      3.67734
      5.08135      3.67640
      5.10942      3.67542
      5.13762      3.67442
      5.16595      3.67343
      5.19441      3.67247
      5.22300      3.67151
      5.25173      3.67054
      5.28058      3.66955
      5.30957      3.66853
      5.33870      3.66753
      5.36796      3.66663
      5.39735      3.66581
      5.42688      3.66509
      5.45654      3.66454
      5.48634      3.66421
      5.51628      3.66408
      5.54636      3.66417
      5.57658      3.66441
      5.60693      3.66478
      5.63743      3.66531
      5.66807      3.66603
      5.69885      3.66688
      5.72977      3.66781
      5.76083      3.66881
      5.79204      3.66978
      5.82339      3.67068
      5.85488      3.67157
      5.88652      3.67244
      5.91831      3.67323
      5.95024      3.67392
      5.98232      3.67444
      6.01455      3.67483
      6.04693      3.67521
      6.07946      3.67568
      6.11213      3.67616
      6.14496      3.67663
      6.17794      3.67713
      6.21107      3.67775
      6.24436      3.67864
      6.27780      3.67987
      6.31139      3.68135
      6.34514      3.68292
      6.37904      3.68456
      6.41310      3.68627
      6.44732      3.68811
      6.48170      3.69010
      6.51623      3.69219
      6.55092      3.69424
      6.58578      3.69621
      6.62079      3.69806
      6.65597      3.69981
      6.69130      3.70149
      6.72681      3.70312
      6.76247      3.70474
      6.79830      3.70636
      6.83430      3.70802
      6.87046      3.70972
      6.90679      3.71148
      6.94328      3.71333
      6.97995      3.71533
      7.01678      3.71751
      7.05378      3.71986
      7.09096      3.72238
      7.12831      3.72502
      7.16582      3.72779
      7.20352      3.73067
      7.24138      3.73368
      7.27942      3.73681
      7.31764      3.74005
      7.35603      3.74340
      7.39460      3.74687
      7.43335      3.75047
      7.47227      3.75424
      7.51138      3.75821
      7.55067      3.76237
      7.59014      3.76670
      7.62979      3.77117
      7.66962      3.77578
      7.70964      3.78054
      7.74984      3.78544
      7.79023      3.79046
      7.83080      3.79557
      7.87156      3.80076
      7.91251      3.80601
      7.95365      3.81136
      7.99498      3.81682
      8.03649      3.82241
      8.07821      3.82813
      8.12011      3.83401
      8.16220      3.84003
      8.20450      3.84624
      8.24698      3.85263
      8.28966      3.85921
      8.33254      3.86593
      8.37562      3.87279
      8.41890      3.87977
      8.46237      3.88685
      8.50605      3.89404
      8.54993      3.90130
      8.59401      3.90861
      8.63829      3.91593
      8.68278      3.92322
      8.72747      3.93045
      8.77237      3.93762
      8.81748      3.94471
      8.86279      3.95174
      8.90832      3.95869
      8.95405      3.96558
      9.00000      3.97240
      9.04616      3.97918
      9.09253      3.98595
      9.13911      3.99277
      9.18591      3.99965
      9.23293      4.00666
      9.28016      4.01378
      9.32762      4.02103
      9.37529      4.02837
      9.42317      4.03578
      9.47128      4.04326
      9.51962      4.05078
      9.56818      4.05832
      9.61696      4.06585
      9.66596      4.07334
      9.71519      4.08076
      9.76465      4.08810
      9.81434      4.09537
      9.86426      4.10258
      9.91440      4.10974
      9.96478      4.11687
      10.0154      4.12400
      10.0662      4.13114
      10.1173      4.13831
      10.1686      4.14553
      10.2202      4.15282
      10.2720      4.16019
      10.3240      4.16767
      10.3763      4.17524
      10.4288      4.18292
      10.4815      4.19072
      10.5345      4.19866
      10.5878      4.20673
      10.6413      4.21493
      10.6950      4.22328
      10.7490      4.23176
      10.8032      4.24039
      10.8577      4.24917
      10.9124      4.25809
      10.9674      4.26713
      11.0226      4.27631
      11.0781      4.28562
      11.1339      4.29509
      11.1899      4.30472
      11.2462      4.31452
      11.3027      4.32446
      11.3595      4.33455
      11.4165      4.34481
      11.4738      4.35526
      11.5314      4.36589
      11.5893      4.37670
      11.6474      4.38768
      11.7057      4.39881
      11.7644      4.41008
      11.8233      4.42152
      11.8825      4.43312
      11.9420      4.44487
      12.0017      4.45678
      12.0617      4.46885
      12.1220      4.48110
      12.1826      4.49356
      12.2434      4.50618
      12.3045      4.51895
      12.3660      4.53185
      12.4277      4.54487
      12.4896      4.55799
      12.5519      4.57121
      12.6144      4.58450
      12.6773      4.59786
      12.7404      4.61128
      12.8038      4.62477
      12.8676      4.63831
      12.9316      4.65191
      12.9959      4.66562
      13.0605      4.67945
      13.1254      4.69344
      13.1906      4.70759
      13.2561      4.72187
      13.3219      4.73625
      13.3880      4.75071
      13.4544      4.76525
      13.5211      4.77988
      13.5881      4.79458
      13.6555      4.80933
      13.7231      4.82411
      13.7911      4.83891
      13.8594      4.85373
      13.9279      4.86858
      13.9968      4.88348
      14.0661      4.89844
      14.1356      4.91347
      14.2055      4.92858
      14.2757      4.94376
      14.3462      4.95904
      14.4170      4.97441
      14.4882      4.98987
      14.5597      5.00543
      14.6315      5.02109
      14.7036      5.03686
      14.7761      5.05274
      14.8489      5.06874
      14.9221      5.08485
      14.9956      5.10108
      15.0694      5.11744
      15.1436      5.13392
      15.2181      5.15054
      15.2930      5.16729
      15.3682      5.18416
      15.4437      5.20115
      15.5196      5.21828
      15.5959      5.23554
      15.6725      5.25293
      15.7494      5.27046
      15.8267      5.28812
      15.9044      5.30590
      15.9824      5.32382
      16.0608      5.34188
      16.1396      5.36008
      16.2187      5.37841
      16.2982      5.39688
      16.3780      5.41549
      16.4582      5.43424
      16.5388      5.45313
      16.6198      5.47217
      16.7011      5.49134
      16.7828      5.51066
      16.8649      5.53012
      16.9473      5.54972
      17.0302      5.56948
      17.1134      5.58938
      17.1970      5.60943
      17.2810      5.62962
      17.3654      5.64996
      17.4502      5.67045
      17.5353      5.69108
      17.6209      5.71186
      17.7068      5.73279
      17.7932      5.75387
      17.8799      5.77510
      17.9671      5.79648
      18.0546      5.81800
      18.1426      5.83968
      18.2309      5.86152
      18.3197      5.88351
      18.4089      5.90565
      18.4984      5.92794
      18.5884      5.95039
      18.6789      5.97299
      18.7697      5.99575
      18.8609      6.01867
      18.9526      6.04174
      19.0447      6.06497
      19.1372      6.08836
      19.2302      6.11190
      19.3236      6.13561
      19.4174      6.15949
      19.5116      6.18353
      19.6063      6.20773
      19.7014      6.23209
      19.7970      6.25661
      19.8930      6.28129
      19.9894      6.30614
      20.0863      6.33115
      20.1836      6.35632
      20.2814      6.38165
      20.3796      6.40715
      20.4783      6.43282
      20.5774      6.45865
      20.6770      6.48466
      20.7771      6.51084
      20.8776      6.53718
      20.9786      6.56370
      21.0800      6.59039
      21.1820      6.61726
      21.2844      6.64431
      21.3872      6.67152
      21.4905      6.69891
      21.5944      6.72648
      21.6986      6.75423
      21.8034      6.78215
      21.9087      6.81025
      22.0144      6.83853
      22.1206      6.86700
      22.2274      6.89566
      22.3346      6.92450
      22.4423      6.95351
      22.5505      6.98270
      22.6592      7.01208
      22.7684      7.04166
      22.8781      7.07143
      22.9883      7.10137
      23.0991      7.13149
      23.2103      7.16179
      23.3220      7.19229
      23.4343      7.22300
      23.5471      7.25389
      23.6604      7.28497
      23.7742      7.31623
      23.8886      7.34769
      24.0035      7.37936
      24.1189      7.41123
      24.2348      7.44329
      24.3513      7.47553
      24.4683      7.50795
      24.5859      7.54058
      24.7040      7.57342
      24.8226      7.60646
      24.9418      7.63969
      25.0615      7.67312
      25.1818      7.70673
      25.3027      7.74056
      25.4241      7.77459
      25.5461      7.80882
      25.6686      7.84325
      25.7917      7.87789
      25.9153      7.91271
      26.0396      7.94774
      26.1644      7.98296
      26.2898      8.01838
      26.4157      8.05402
      26.5423      8.08986
      26.6694      8.12590
      26.7971      8.16214
      26.9254      8.19860
      27.0543      8.23529
      27.1838      8.27219
      27.3139      8.30930
      27.4446      8.34660
      27.5759      8.38410
      27.7078      8.42182
      27.8403      8.45978
      27.9734      8.49796
      28.1072      8.53635
      28.2415      8.57495
      28.3765      8.61377
      28.5121      8.65281
      28.6483      8.69211
      28.7852      8.73164
      28.9226      8.77138
      29.0608      8.81134
      29.1995      8.85152
      29.3389      8.89193
      29.4789      8.93258
      29.6196      8.97348
      29.7610      9.01461
      29.9030      9.05598
      30.0456      9.09760
      30.1889      9.13948
      30.3329      9.18163
      30.4775      9.22404
      30.6228      9.26667
      30.7687      9.30953
      30.9154      9.35262
      31.0627      9.39595
      31.2107      9.43952
      31.3594      9.48335
      31.5087      9.52745
      31.6588      9.57179
      31.8095      9.61635
      31.9610      9.66116
      32.1131      9.70624
      32.2660      9.75159
      32.4195      9.79723
      32.5738      9.84313
      32.7287      9.88927
      32.8844      9.93567
      33.0408      9.98231
      33.1979      10.0292
      33.3558      10.0764
      33.5144      10.1240
      33.6737      10.1718
      33.8337      10.2199
      33.9945      10.2683
      34.1560      10.3170
      34.3183      10.3660
      34.4813      10.4155
      34.6451      10.4653
      34.8096      10.5155
      34.9749      10.5663
      35.1410      10.6177
      35.3078      10.6697
      35.4754      10.7224
      35.6438      10.7759
      35.8129      10.8302
      35.9828      10.8856
      36.1535      10.9421
      36.3250      10.9999
      36.4973      11.0591
      36.6704      11.1199
      36.8443      11.1824
      37.0189      11.2471
      37.1944      11.3140
      37.3707      11.3836
      37.5478      11.4563
      37.7258      11.5325
      37.9045      11.6127
      38.0841      11.6977
      38.2645      11.7882
      38.4457      11.8854
      38.6278      11.9904
      38.8107      12.1051
      38.9945      12.2316
      39.1791      12.3732
      39.3645      12.5344
      39.5509      12.7220
      39.7380      12.9471
      39.9261      13.2295
      40.1150      13.6100
      40.3048      14.1980
      40.4954      15.5677
      40.6869         -NaN
      40.8794         -NaN
      41.0727         -NaN
      41.2669         -NaN
      41.4620         -NaN
      41.6580         -NaN
      41.8549         -NaN
      42.0527         -NaN
      42.2514         -NaN
      42.4510         -NaN
      42.6516         -NaN
      42.8531         -NaN
      43.0555         -NaN
      43.2588         -NaN
      43.4631         -NaN
      43.6684         -NaN
      43.8745         -NaN
      44.0817         -NaN
      44.2898         -NaN
      44.4988         -NaN
      44.7088         -NaN
      44.9198         -NaN
      45.1318         -NaN
      45.3447         -NaN
      45.5586         -NaN
      45.7735         -NaN
      45.9894         -NaN
      46.2063         -NaN
      46.4242         -NaN
      46.6431         -NaN
      46.8630         -NaN
      47.0839         -NaN
      47.3059         -NaN
      47.5289         -NaN
      47.7528         -NaN
      47.9779         -NaN
      48.2040         -NaN
      48.4311         -NaN
      48.6592         -NaN
      48.8884         -NaN
      49.1187         -NaN
      49.3501         -NaN
      49.5825         -NaN
      49.8159         -NaN
      50.0505         -NaN
      50.2861         -NaN
      50.5229         -NaN
      50.7607         -NaN
      50.9996         -NaN
      51.2396         -NaN
      51.4808         -NaN
      51.7230         -NaN
      51.9663         -NaN
      52.2108         -NaN
      52.4564         -NaN
      52.7032         -NaN
      52.9511         -NaN
      53.2001         -NaN
      53.4503         -NaN
      53.7016         -NaN
      53.9541         -NaN
      54.2077         -NaN
      54.4626         -NaN
      54.7186         -NaN
      54.9758         -NaN
      55.2341         -NaN
      55.4937         -NaN
      55.7545         -NaN
      56.0164         -NaN
      56.2796         -NaN
      56.5440         -NaN
      56.8096         -NaN
      57.0765         -NaN
      57.3445         -NaN
      57.6138         -NaN
      57.8844         -NaN
      58.1562         -NaN
      58.4292         -NaN
      58.7035         -NaN
      58.9791         -NaN
      59.2560         -NaN
      59.5341         -NaN
      59.8135         -NaN
      60.0942         -NaN
      60.3762         -NaN
      60.6595         -NaN
      60.9441         -NaN
      61.2300         -NaN
      61.5173         -NaN
      61.8058         -NaN
      62.0957         -NaN
      62.3870         -NaN
      62.6796         -NaN
      62.9735         -NaN
      63.2688         -NaN
      63.5654         -NaN
      63.8634         -NaN
      64.1628         -NaN
      64.4636         -NaN
      64.7658         -NaN
      65.0694         -NaN
      65.3743         -NaN
      65.6807         -NaN
      65.9885         -NaN
      66.2977         -NaN
      66.6083         -NaN
      66.9204         -NaN
      67.2339         -NaN
      67.5488         -NaN
      67.8652         -NaN
      68.1831         -NaN
      68.5024         -NaN
      68.8232         -NaN
      69.1455         -NaN
      69.4693         -NaN
      69.7946         -NaN
      70.1214         -NaN
      70.4496         -NaN
      70.7794         -NaN
      71.1108         -NaN
      71.4436         -NaN
      71.7780         -NaN
      72.1139         -NaN
      72.4514         -NaN
      72.7904         -NaN
      73.1310         -NaN
      73.4732         -NaN
      73.8169         -NaN
      74.1623         -NaN
      74.5092         -NaN
      74.8578         -NaN
      75.2079         -NaN
      75.5597         -NaN
      75.9130         -NaN
      76.2681         -NaN
      76.6247         -NaN
      76.9830         -NaN
      77.3430         -NaN
      77.7046         -NaN
      78.0679         -NaN
      78.4328         -NaN
      78.7995         -NaN
      79.1678         -NaN
      79.5378         -NaN
      79.9096         -NaN
      80.2830         -NaN
      80.6582         -NaN
      81.0352         -NaN
      81.4138         -NaN
      81.7942         -NaN
      82.1764         -NaN
      82.5603         -NaN
      82.9460         -NaN
      83.3335         -NaN
      83.7227         -NaN
      84.1138         -NaN
      84.5067         -NaN
      84.9014         -NaN
      85.2979         -NaN
      85.6962         -NaN
      86.0964         -NaN
      86.4984         -NaN
      86.9023         -NaN
      87.3080         -NaN
      87.7156         -NaN
      88.1251         -NaN
      88.5365         -NaN
      88.9498         -NaN
      89.3649         -NaN
      89.7820         -NaN
      90.2011         -NaN
      90.6221         -NaN
      91.0450         -NaN
      91.4698         -NaN
      91.8967         -NaN
      92.3254         -NaN
      92.7562         -NaN
      93.1890         -NaN
      93.6237         -NaN
      94.0605         -NaN
      94.4993         -NaN
      94.9401         -NaN
      95.3829         -NaN
      95.8278         -NaN
      96.2747         -NaN
      96.7237         -NaN
      97.1748         -NaN
      97.6279         -NaN
      98.0832         -NaN
      98.5406         -NaN

----------------------------------------------------------------------
SPECTRUM: CWW_Sbc_ext
FILTER:        SDSS u + CCD, [MT]  no atmosphere (Ref. F. Castander)
----------------------------------------------------------------------
      0.00000      0.00000
   0.00461578    0.0206484
   0.00925291    0.0412950
    0.0139114    0.0619848
    0.0185914    0.0826601
    0.0232930     0.103323
    0.0280163     0.123989
    0.0327615     0.144634
    0.0375284     0.165148
    0.0423174     0.185438
    0.0471286     0.205478
    0.0519619     0.225186
    0.0568175     0.244486
    0.0616956     0.263371
    0.0665962     0.281857
    0.0715193     0.300032
    0.0764652     0.318089
    0.0814340     0.336140
    0.0864257     0.354228
    0.0914403     0.372338
    0.0964782     0.390407
     0.101539     0.408349
     0.106624     0.426084
     0.111732     0.443526
     0.116863     0.460619
     0.122018     0.477318
     0.127198     0.493605
     0.132400     0.509460
     0.137627     0.524863
     0.142878     0.539808
     0.148154     0.554299
     0.153453     0.568339
     0.158777     0.581931
     0.164126     0.595074
     0.169499     0.607769
     0.174898     0.620017
     0.180321     0.631841
     0.185769     0.643257
     0.191242     0.654278
     0.196741     0.664913
     0.202264     0.675177
     0.207814     0.685082
     0.213389     0.694644
     0.218990     0.703883
     0.224616     0.712814
     0.230269     0.721448
     0.235947     0.729800
     0.241652     0.737888
     0.247383     0.745727
     0.253141     0.753333
     0.258925     0.760723
     0.264736     0.767910
     0.270574     0.774907
     0.276439     0.781725
     0.282331     0.788378
     0.288249     0.794870
     0.294196     0.801214
     0.300170     0.807420
     0.306171     0.813501
     0.312200     0.819464
     0.318257     0.825315
     0.324342     0.831059
     0.330454     0.836699
     0.336596     0.842245
     0.342765     0.847706
     0.348963     0.853089
     0.355189     0.858401
     0.361445     0.863647
     0.367729     0.868828
     0.374042     0.873947
     0.380384     0.879007
     0.386756     0.884013
     0.393157     0.888967
     0.399587     0.893875
     0.406048     0.898737
     0.412538     0.903552
     0.419057     0.908320
     0.425608     0.913040
     0.432188     0.917710
     0.438799     0.922329
     0.445440     0.926894
     0.452112     0.931404
     0.458814     0.935856
     0.465548     0.940248
     0.472312     0.944576
     0.479108     0.948837
     0.485936     0.953025
     0.492794     0.957137
     0.499685     0.961167
     0.506607     0.965110
     0.513561     0.968961
     0.520548     0.972718
     0.527566     0.976382
     0.534617     0.979952
     0.541700     0.983424
     0.548817     0.986796
     0.555966     0.990066
     0.563148     0.993238
     0.570363     0.996313
     0.577611     0.999295
     0.584893      1.00219
     0.592209      1.00499
     0.599558      1.00772
     0.606941      1.01035
     0.614359      1.01291
     0.621810      1.01541
     0.629296      1.01783
     0.636817      1.02020
     0.644372      1.02253
     0.651962      1.02480
     0.659587      1.02705
     0.667247      1.02927
     0.674943      1.03149
     0.682674      1.03370
     0.690441      1.03591
     0.698244      1.03813
     0.706082      1.04037
     0.713957      1.04265
     0.721869      1.04499
     0.729816      1.04739
     0.737801      1.04987
     0.745822      1.05243
     0.753881      1.05510
     0.761976      1.05787
     0.770109      1.06076
     0.778279      1.06378
     0.786488      1.06691
     0.794734      1.07012
     0.803018      1.07341
     0.811340      1.07676
     0.819701      1.08018
     0.828100      1.08366
     0.836538      1.08717
     0.845015      1.09060
     0.853532      1.09406
     0.862087      1.09745
     0.870682      1.10076
     0.879317      1.10408
     0.887991      1.10742
     0.896706      1.11070
     0.905461      1.11396
     0.914256      1.11708
     0.923092      1.12002
     0.931968      1.12295
     0.940886      1.12591
     0.949845      1.12874
     0.958845      1.13144
     0.967886      1.13420
     0.976970      1.13674
     0.986095      1.13946
     0.995262      1.14242
      1.00447      1.14539
      1.01372      1.14829
      1.02302      1.15125
      1.03236      1.15388
      1.04174      1.15639
      1.05116      1.15890
      1.06063      1.16140
      1.07014      1.16352
      1.07970      1.16519
      1.08930      1.16638
      1.09894      1.16697
      1.10863      1.16734
      1.11836      1.16742
      1.12814      1.16701
      1.13796      1.16609
      1.14783      1.16482
      1.15774      1.16277
      1.16770      1.16021
      1.17771      1.15719
      1.18776      1.15378
      1.19786      1.14998
      1.20800      1.14581
      1.21820      1.14135
      1.22844      1.13660
      1.23872      1.13191
      1.24905      1.12723
      1.25944      1.12255
      1.26986      1.11771
      1.28034      1.11267
      1.29087      1.10723
      1.30144      1.10206
      1.31206      1.09694
      1.32274      1.09152
      1.33346      1.08566
      1.34423      1.07909
      1.35505      1.07232
      1.36592      1.06592
      1.37684      1.05982
      1.38781      1.05350
      1.39883      1.04688
      1.40991      1.03981
      1.42103      1.03274
      1.43220      1.02582
      1.44343      1.01906
      1.45471      1.01179
      1.46604      1.00394
      1.47742     0.995951
      1.48886     0.988259
      1.50035     0.981381
      1.51189     0.975331
      1.52348     0.969632
      1.53513     0.964323
      1.54683     0.960294
      1.55859     0.957527
      1.57040     0.956117
      1.58226     0.955419
      1.59418     0.955154
      1.60615     0.955516
      1.61818     0.957214
      1.63027     0.960015
      1.64241     0.963234
      1.65461     0.966185
      1.66686     0.968956
      1.67917     0.971916
      1.69153     0.975791
      1.70396     0.980373
      1.71644     0.984009
      1.72898     0.986585
      1.74157     0.988622
      1.75423     0.990844
      1.76694     0.993354
      1.77971     0.995754
      1.79254     0.997222
      1.80543     0.998511
      1.81838      1.00033
      1.83139      1.00270
      1.84446      1.00509
      1.85759      1.00731
      1.87078      1.00910
      1.88403      1.01047
      1.89734      1.01230
      1.91072      1.01472
      1.92415      1.01719
      1.93765      1.01907
      1.95121      1.02022
      1.96483      1.02041
      1.97852      1.02062
      1.99226      1.02095
      2.00608      1.02129
      2.01995      1.02176
      2.03389      1.02344
      2.04789      1.02631
      2.06196      1.02928
      2.07610      1.03134
      2.09030      1.03257
      2.10456      1.03357
      2.11889      1.03506
      2.13329      1.03724
      2.14775      1.03901
      2.16228      1.03984
      2.17687      1.03970
      2.19154      1.03959
      2.20627      1.03996
      2.22107      1.04154
      2.23594      1.04398
      2.25087      1.04699
      2.26588      1.05042
      2.28095      1.05566
      2.29610      1.06282
      2.31131      1.07186
      2.32660      1.08206
      2.34195      1.09275
      2.35738      1.10411
      2.37287      1.11739
      2.38844      1.13327
      2.40408      1.15080
      2.41979      1.16957
      2.43558      1.18928
      2.45144      1.21047
      2.46737      1.23270
      2.48337      1.25740
      2.49945      1.28350
      2.51560      1.31035
      2.53183      1.33744
      2.54813      1.36580
      2.56451      1.39663
      2.58096      1.43193
      2.59749      1.47092
      2.61410      1.51128
      2.63078      1.55144
      2.64754      1.59217
      2.66438      1.63594
      2.68129      1.68196
      2.69828      1.72994
      2.71535      1.77709
      2.73250      1.82286
      2.74973      1.86900
      2.76704      1.91821
      2.78443      1.96989
      2.80189      2.02374
      2.81944      2.07798
      2.83707      2.13213
      2.85478      2.18698
      2.87258      2.24400
      2.89045      2.30328
      2.90841      2.36175
      2.92645      2.41892
      2.94457      2.47479
      2.96278      2.53077
      2.98107      2.58917
      2.99945      2.65247
      3.01791      2.72061
      3.03645      2.79386
      3.05509      2.87142
      3.07380      2.95166
      3.09261      3.03195
      3.11150      3.11010
      3.13048      3.18334
      3.14954      3.24982
      3.16869      3.30786
      3.18794      3.35627
      3.20727      3.39414
      3.22669      3.42237
      3.24620      3.44208
      3.26580      3.45532
      3.28549      3.46419
      3.30527      3.47010
      3.32514      3.47393
      3.34510      3.47637
      3.36516      3.47801
      3.38531      3.47937
      3.40555      3.48122
      3.42588      3.48339
      3.44631      3.48566
      3.46684      3.48777
      3.48745      3.48960
      3.50817      3.49101
      3.52898      3.49244
      3.54988      3.49395
      3.57088      3.49560
      3.59198      3.49714
      3.61318      3.49833
      3.63447      3.49924
      3.65586      3.50030
      3.67735      3.50196
      3.69894      3.50420
      3.72063      3.50684
      3.74242      3.50939
      3.76431      3.51189
      3.78630      3.51455
      3.80839      3.51764
      3.83059      3.52087
      3.85288      3.52409
      3.87529      3.52678
      3.89779      3.52897
      3.92039      3.53111
      3.94311      3.53360
      3.96592      3.53633
      3.98884      3.53927
      4.01187      3.54217
      4.03501      3.54480
      4.05825      3.54768
      4.08159      3.55106
      4.10505      3.55485
      4.12861      3.55875
      4.15229      3.56287
      4.17607      3.56719
      4.19996      3.57229
      4.22396      3.57825
      4.24808      3.58461
      4.27230      3.59060
      4.29663      3.59627
      4.32108      3.60177
      4.34564      3.60737
      4.37032      3.61342
      4.39511      3.61951
      4.42001      3.62500
      4.44503      3.62964
      4.47016      3.63362
      4.49541      3.63692
      4.52077      3.64031
      4.54626      3.64402
      4.57186      3.64809
      4.59758      3.65239
      4.62341      3.65697
      4.64937      3.66170
      4.67545      3.66685
      4.70164      3.67266
      4.72796      3.67900
      4.75440      3.68563
      4.78096      3.69246
      4.80764      3.69952
      4.83445      3.70686
      4.86138      3.71456
      4.88844      3.72226
      4.91562      3.72959
      4.94292      3.73652
      4.97035      3.74343
      4.99791      3.75061
      5.02560      3.75817
      5.05341      3.76597
      5.08135      3.77382
      5.10942      3.78158
      5.13762      3.78939
      5.16595      3.79736
      5.19441      3.80541
      5.22300      3.81342
      5.25173      3.82132
      5.28058      3.82905
      5.30957      3.83653
      5.33870      3.84398
      5.36796      3.85167
      5.39735      3.85952
      5.42688      3.86761
      5.45654      3.87629
      5.48634      3.88580
      5.51628      3.89616
      5.54636      3.90749
      5.57658      3.91949
      5.60693      3.93199
      5.63743      3.94523
      5.66807      3.95935
      5.69885      3.97399
      5.72977      3.98902
      5.76083      4.00435
      5.79204      4.01934
      5.82339      4.03381
      5.85488      4.04808
      5.88652      4.06209
      5.91831      4.07548
      5.95024      4.08816
      5.98232      4.09958
      6.01455      4.10985
      6.04693      4.11975
      6.07946      4.12978
      6.11213      4.13943
      6.14496      4.14833
      6.17794      4.15673
      6.21107      4.16522
      6.24436      4.17478
      6.27780      4.18605
      6.31139      4.19846
      6.34514      4.21104
      6.37904      4.22363
      6.41310      4.23626
      6.44732      4.24923
      6.48170      4.26283
      6.51623      4.27658
      6.55092      4.28946
      6.58578      4.30100
      6.62079      4.31105
      6.65597      4.31956
      6.69130      4.32677
      6.72681      4.33289
      6.76247      4.33827
      6.79830      4.34307
      6.83430      4.34759
      6.87046      4.35193
      6.90679      4.35626
      6.94328      4.36081
      6.97995      4.36590
      7.01678      4.37174
      7.05378      4.37833
      7.09096      4.38556
      7.12831      4.39326
      7.16582      4.40136
      7.20352      4.40981
      7.24138      4.41870
      7.27942      4.42796
      7.31764      4.43756
      7.35603      4.44753
      7.39460      4.45787
      7.43335      4.46871
      7.47227      4.48027
      7.51138      4.49270
      7.55067      4.50601
      7.59014      4.52010
      7.62979      4.53478
      7.66962      4.55003
      7.70964      4.56588
      7.74984      4.58236
      7.79023      4.59930
      7.83080      4.61656
      7.87156      4.63404
      7.91251      4.65171
      7.95365      4.66975
      7.99498      4.68825
      8.03649      4.70732
      8.07821      4.72711
      8.12011      4.74774
      8.16220      4.76920
      8.20450      4.79170
      8.24698      4.81541
      8.28966      4.84027
      8.33254      4.86613
      8.37562      4.89291
      8.41890      4.92046
      8.46237      4.94873
      8.50605      4.97777
      8.54993      5.00736
      8.59401      5.03716
      8.63829      5.06694
      8.68278      5.09634
      8.72747      5.12496
      8.77237      5.15274
      8.81748      5.17958
      8.86279      5.20538
      8.90832      5.23007
      8.95405      5.25361
      9.00000      5.27593
      9.04616      5.29724
      9.09253      5.31791
      9.13911      5.33831
      9.18591      5.35882
      9.23293      5.37989
      9.28016      5.40165
      9.32762      5.42408
      9.37529      5.44701
      9.42317      5.47026
      9.47128      5.49362
      9.51962      5.51699
      9.56818      5.54010
      9.61696      5.56253
      9.66596      5.58383
      9.71519      5.60363
      9.76465      5.62170
      9.81434      5.63799
      9.86426      5.65258
      9.91440      5.66565
      9.96478      5.67733
      10.0154      5.68784
      10.0662      5.69732
      10.1173      5.70600
      10.1686      5.71416
      10.2202      5.72200
      10.2720      5.72968
      10.3240      5.73732
      10.3763      5.74497
      10.4288      5.75270
      10.4815      5.76065
      10.5345      5.76887
      10.5878      5.77738
      10.6413      5.78616
      10.6950      5.79522
      10.7490      5.80451
      10.8032      5.81412
      10.8577      5.82401
      10.9124      5.83414
      10.9674      5.84435
      11.0226      5.85467
      11.0781      5.86512
      11.1339      5.87583
      11.1899      5.88691
      11.2462      5.89831
      11.3027      5.90994
      11.3595      5.92180
      11.4165      5.93400
      11.4738      5.94661
      11.5314      5.95969
      11.5893      5.97308
      11.6474      5.98666
      11.7057      6.00023
      11.7644      6.01390
      11.8233      6.02769
      11.8825      6.04165
      11.9420      6.05571
      12.0017      6.06992
      12.0617      6.08436
      12.1220      6.09926
      12.1826      6.11469
      12.2434      6.13057
      12.3045      6.14670
      12.3660      6.16292
      12.4277      6.17920
      12.4896      6.19538
      12.5519      6.21144
      12.6144      6.22723
      12.6773      6.24268
      12.7404      6.25774
      12.8038      6.27242
      12.8676      6.28668
      12.9316      6.30062
      12.9959      6.31442
      13.0605      6.32835
      13.1254      6.34258
      13.1906      6.35705
      13.2561      6.37167
      13.3219      6.38621
      13.3880      6.40056
      13.4544      6.41472
      13.5211      6.42869
      13.5881      6.44234
      13.6555      6.45555
      13.7231      6.46821
      13.7911      6.48025
      13.8594      6.49170
      13.9279      6.50264
      13.9968      6.51315
      14.0661      6.52332
      14.1356      6.53323
      14.2055      6.54295
      14.2757      6.55254
      14.3462      6.56202
      14.4170      6.57142
      14.4882      6.58076
      14.5597      6.59007
      14.6315      6.59936
      14.7036      6.60865
      14.7761      6.61796
      14.8489      6.62731
      14.9221      6.63670
      14.9956      6.64616
      15.0694      6.65570
      15.1436      6.66531
      15.2181      6.67501
      15.2930      6.68480
      15.3682      6.69468
      15.4437      6.70465
      15.5196      6.71471
      15.5959      6.72487
      15.6725      6.73512
      15.7494      6.74547
      15.8267      6.75591
      15.9044      6.76645
      15.9824      6.77709
      16.0608      6.78784
      16.1396      6.79868
      16.2187      6.80964
      16.2982      6.82070
      16.3780      6.83188
      16.4582      6.84316
      16.5388      6.85456
      16.6198      6.86607
      16.7011      6.87769
      16.7828      6.88943
      16.8649      6.90128
      16.9473      6.91325
      17.0302      6.92533
      17.1134      6.93753
      17.1970      6.94985
      17.2810      6.96229
      17.3654      6.97484
      17.4502      6.98751
      17.5353      7.00031
      17.6209      7.01322
      17.7068      7.02625
      17.7932      7.03941
      17.8799      7.05269
      17.9671      7.06609
      18.0546      7.07961
      18.1426      7.09326
      18.2309      7.10703
      18.3197      7.12093
      18.4089      7.13495
      18.4984      7.14910
      18.5884      7.16338
      18.6789      7.17778
      18.7697      7.19231
      18.8609      7.20697
      18.9526      7.22176
      19.0447      7.23667
      19.1372      7.25172
      19.2302      7.26690
      19.3236      7.28221
      19.4174      7.29766
      19.5116      7.31324
      19.6063      7.32895
      19.7014      7.34480
      19.7970      7.36078
      19.8930      7.37690
      19.9894      7.39315
      20.0863      7.40954
      20.1836      7.42607
      20.2814      7.44274
      20.3796      7.45954
      20.4783      7.47649
      20.5774      7.49358
      20.6770      7.51081
      20.7771      7.52818
      20.8776      7.54569
      20.9786      7.56335
      21.0800      7.58115
      21.1820      7.59910
      21.2844      7.61719
      21.3872      7.63542
      21.4905      7.65381
      21.5944      7.67234
      21.6986      7.69102
      21.8034      7.70984
      21.9087      7.72882
      22.0144      7.74795
      22.1206      7.76723
      22.2274      7.78667
      22.3346      7.80625
      22.4423      7.82599
      22.5505      7.84588
      22.6592      7.86593
      22.7684      7.88614
      22.8781      7.90650
      22.9883      7.92702
      23.0991      7.94769
      23.2103      7.96851
      23.3220      7.98951
      23.4343      8.01066
      23.5471      8.03197
      23.6604      8.05344
      23.7742      8.07508
      23.8886      8.09687
      24.0035      8.11884
      24.1189      8.14096
      24.2348      8.16325
      24.3513      8.18570
      24.4683      8.20831
      24.5859      8.23109
      24.7040      8.25404
      24.8226      8.27716
      24.9418      8.30045
      25.0615      8.32390
      25.1818      8.34751
      25.3027      8.37130
      25.4241      8.39527
      25.5461      8.41940
      25.6686      8.44371
      25.7917      8.46819
      25.9153      8.49283
      26.0396      8.51765
      26.1644      8.54264
      26.2898      8.56781
      26.4157      8.59316
      26.5423      8.61869
      26.6694      8.64439
      26.7971      8.67026
      26.9254      8.69632
      27.0543      8.72256
      27.1838      8.74899
      27.3139      8.77561
      27.4446      8.80239
      27.5759      8.82936
      27.7078      8.85651
      27.8403      8.88386
      27.9734      8.91140
      28.1072      8.93912
      28.2415      8.96702
      28.3765      8.99512
      28.5121      9.02340
      28.6483      9.05189
      28.7852      9.08057
      28.9226      9.10945
      29.0608      9.13851
      29.1995      9.16776
      29.3389      9.19721
      29.4789      9.22686
      29.6196      9.25673
      29.7610      9.28679
      29.9030      9.31706
      30.0456      9.34753
      30.1889      9.37821
      30.3329      9.40911
      30.4775      9.44021
      30.6228      9.47152
      30.7687      9.50302
      30.9154      9.53471
      31.0627      9.56661
      31.2107      9.59872
      31.3594      9.63105
      31.5087      9.66359
      31.6588      9.69634
      31.8095      9.72928
      31.9610      9.76244
      32.1131      9.79582
      32.2660      9.82942
      32.4195      9.86324
      32.5738      9.89728
      32.7287      9.93153
      32.8844      9.96600
      33.0408      10.0007
      33.1979      10.0356
      33.3558      10.0707
      33.5144      10.1061
      33.6737      10.1418
      33.8337      10.1776
      33.9945      10.2138
      34.1560      10.2502
      34.3183      10.2869
      34.4813      10.3238
      34.6451      10.3612
      34.8096      10.3988
      34.9749      10.4369
      35.1410      10.4754
      35.3078      10.5143
      35.4754      10.5537
      35.6438      10.5937
      35.8129      10.6343
      35.9828      10.6755
      36.1535      10.7175
      36.3250      10.7602
      36.4973      10.8039
      36.6704      10.8485
      36.8443      10.8941
      37.0189      10.9409
      37.1944      10.9890
      37.3707      11.0385
      37.5478      11.0896
      37.7258      11.1424
      37.9045      11.1972
      38.0841      11.2541
      38.2645      11.3136
      38.4457      11.3757
      38.6278      11.4410
      38.8107      11.5099
      38.9945      11.5827
      39.1791      11.6602
      39.3645      11.7431
      39.5509      11.8324
      39.7380      11.9291
      39.9261      12.0349
      40.1150      12.1517
      40.3048      12.2822
      40.4954      12.4302
      40.6869      12.6015
      40.8794      12.8047
      41.0727      13.0548
      41.2669      13.3801
      41.4620      13.8468
      41.6580      14.6825
      41.8549         -NaN
      42.0527         -NaN
      42.2514         -NaN
      42.4510         -NaN
      42.6516         -NaN
      42.8531         -NaN
      43.0555         -NaN
      43.2588         -NaN
      43.4631         -NaN
      43.6684         -NaN
      43.8745         -NaN
      44.0817         -NaN
      44.2898         -NaN
      44.4988         -NaN
      44.7088         -NaN
      44.9198         -NaN
      45.1318         -NaN
      45.3447         -NaN
      45.5586         -NaN
      45.7735         -NaN
      45.9894         -NaN
      46.2063         -NaN
      46.4242         -NaN
      46.6431         -NaN
      46.8630         -NaN
      47.0839         -NaN
      47.3059         -NaN
      47.5289         -NaN
      47.7528         -NaN
      47.9779         -NaN
      48.2040         -NaN
      48.4311         -NaN
      48.6592         -NaN
      48.8884         -NaN
      49.1187         -NaN
      49.3501         -NaN
      49.5825         -NaN
      49.8159         -NaN
      50.0505         -NaN
      50.2861         -NaN
      50.5229         -NaN
      50.7607         -NaN
      50.9996         -NaN
      51.2396         -NaN
      51.4808         -NaN
      51.7230         -NaN
      51.9663         -NaN
      52.2108         -NaN
      52.4564         -NaN
      52.7032         -NaN
      52.9511         -NaN
      53.2001         -NaN
      53.4503         -NaN
      53.7016         -NaN
      53.9541         -NaN
      54.2077         -NaN
      54.4626         -NaN
      54.7186         -NaN
      54.9758         -NaN
      55.2341         -NaN
      55.4937         -NaN
      55.7545         -NaN
      56.0164         -NaN
      56.2796         -NaN
      56.5440         -NaN
      56.8096         -NaN
      57.0765         -NaN
      57.3445         -NaN
      57.6138         -NaN
      57.8844         -NaN
      58.1562         -NaN
      58.4292         -NaN
      58.7035         -NaN
      58.9791         -NaN
      59.2560         -NaN
      59.5341         -NaN
      59.8135         -NaN
      60.0942         -NaN
      60.3762         -NaN
      60.6595         -NaN
      60.9441         -NaN
      61.2300         -NaN
      61.5173         -NaN
      61.8058         -NaN
      62.0957         -NaN
      62.3870         -NaN
      62.6796         -NaN
      62.9735         -NaN
      63.2688         -NaN
      63.5654         -NaN
      63.8634         -NaN
      64.1628         -NaN
      64.4636         -NaN
      64.7658         -NaN
      65.0694         -NaN
      65.3743         -NaN
      65.6807         -NaN
      65.9885         -NaN
      66.2977         -NaN
      66.6083         -NaN
      66.9204         -NaN
      67.2339         -NaN
      67.5488         -NaN
      67.8652         -NaN
      68.1831         -NaN
      68.5024         -NaN
      68.8232         -NaN
      69.1455         -NaN
      69.4693         -NaN
      69.7946         -NaN
      70.1214         -NaN
      70.4496         -NaN
      70.7794         -NaN
      71.1108         -NaN
      71.4436         -NaN
      71.7780         -NaN
      72.1139         -NaN
      72.4514         -NaN
      72.7904         -NaN
      73.1310         -NaN
      73.4732         -NaN
      73.8169         -NaN
      74.1623         -NaN
      74.5092         -NaN
      74.8578         -NaN
      75.2079         -NaN
      75.5597         -NaN
      75.9130         -NaN
      76.2681         -NaN
      76.6247         -NaN
      76.9830         -NaN
      77.3430         -NaN
      77.7046         -NaN
      78.0679         -NaN
      78.4328         -NaN
      78.7995         -NaN
      79.1678         -NaN
      79.5378         -NaN
      79.9096         -NaN
      80.2830         -NaN
      80.6582         -NaN
      81.0352         -NaN
      81.4138         -NaN
      81.7942         -NaN
      82.1764         -NaN
      82.5603         -NaN
      82.9460         -NaN
      83.3335         -NaN
      83.7227         -NaN
      84.1138         -NaN
      84.5067         -NaN
      84.9014         -NaN
      85.2979         -NaN
      85.6962         -NaN
      86.0964         -NaN
      86.4984         -NaN
      86.9023         -NaN
      87.3080         -NaN
      87.7156         -NaN
      88.1251         -NaN
      88.5365         -NaN
      88.9498         -NaN
      89.3649         -NaN
      89.7820         -NaN
      90.2011         -NaN
      90.6221         -NaN
      91.0450         -NaN
      91.4698         -NaN
      91.8967         -NaN
      92.3254         -NaN
      92.7562         -NaN
      93.1890         -NaN
      93.6237         -NaN
      94.0605         -NaN
      94.4993         -NaN
      94.9401         -NaN
      95.3829         -NaN
      95.8278         -NaN
      96.2747         -NaN
      96.7237         -NaN
      97.1748         -NaN
      97.6279         -NaN
      98.0832         -NaN
      98.5406         -NaN

----------------------------------------------------------------------
SPECTRUM: CWW_Scd_ext
FILTER:        SDSS u + CCD, [MT]  no atmosphere (Ref. F. Castander)
----------------------------------------------------------------------
      0.00000      0.00000
   0.00461578    0.0131695
   0.00925291    0.0262673
    0.0139114    0.0393129
    0.0185914    0.0521487
    0.0232930    0.0647737
    0.0280163    0.0774141
    0.0327615    0.0901282
    0.0375284     0.102743
    0.0423174     0.114996
    0.0471286     0.126637
    0.0519619     0.137440
    0.0568175     0.147350
    0.0616956     0.156473
    0.0665962     0.164934
    0.0715193     0.172906
    0.0764652     0.180608
    0.0814340     0.188205
    0.0864257     0.195790
    0.0914403     0.203427
    0.0964782     0.211123
     0.101539     0.218875
     0.106624     0.226671
     0.111732     0.234491
     0.116863     0.242311
     0.122018     0.250116
     0.127198     0.257893
     0.132400     0.265633
     0.137627     0.273324
     0.142878     0.280962
     0.148154     0.288540
     0.153453     0.296056
     0.158777     0.303508
     0.164126     0.310892
     0.169499     0.318206
     0.174898     0.325450
     0.180321     0.332627
     0.185769     0.339733
     0.191242     0.346767
     0.196741     0.353726
     0.202264     0.360602
     0.207814     0.367388
     0.213389     0.374073
     0.218990     0.380649
     0.224616     0.387101
     0.230269     0.393415
     0.235947     0.399582
     0.241652     0.405594
     0.247383     0.411442
     0.253141     0.417115
     0.258925     0.422606
     0.264736     0.427902
     0.270574     0.432999
     0.276439     0.437889
     0.282331     0.442566
     0.288249     0.447023
     0.294196     0.451260
     0.300170     0.455269
     0.306171     0.459050
     0.312200     0.462603
     0.318257     0.465926
     0.324342     0.469018
     0.330454     0.471874
     0.336596     0.474494
     0.342765     0.476880
     0.348963     0.479039
     0.355189     0.480974
     0.361445     0.482688
     0.367729     0.484181
     0.374042     0.485454
     0.380384     0.486505
     0.386756     0.487343
     0.393157     0.487972
     0.399587     0.488405
     0.406048     0.488649
     0.412538     0.488708
     0.419057     0.488582
     0.425608     0.488276
     0.432188     0.487794
     0.438799     0.487141
     0.445440     0.486324
     0.452112     0.485352
     0.458814     0.484228
     0.465548     0.482959
     0.472312     0.481549
     0.479108     0.480004
     0.485936     0.478324
     0.492794     0.476516
     0.499685     0.474585
     0.506607     0.472535
     0.513561     0.470371
     0.520548     0.468098
     0.527566     0.465720
     0.534617     0.463241
     0.541700     0.460666
     0.548817     0.457998
     0.555966     0.455242
     0.563148     0.452406
     0.570363     0.449495
     0.577611     0.446517
     0.584893     0.443480
     0.592209     0.440390
     0.599558     0.437248
     0.606941     0.434061
     0.614359     0.430833
     0.621810     0.427573
     0.629296     0.424289
     0.636817     0.420989
     0.644372     0.417680
     0.651962     0.414368
     0.659587     0.411067
     0.667247     0.407791
     0.674943     0.404546
     0.682674     0.401340
     0.690441     0.398183
     0.698244     0.395080
     0.706082     0.392049
     0.713957     0.389111
     0.721869     0.386279
     0.729816     0.383571
     0.737801     0.381000
     0.745822     0.378582
     0.753881     0.376332
     0.761976     0.374261
     0.770109     0.372386
     0.778279     0.370724
     0.786488     0.369253
     0.794734     0.367941
     0.803018     0.366792
     0.811340     0.365798
     0.819701     0.364963
     0.828100     0.364296
     0.836538     0.363742
     0.845015     0.363225
     0.853532     0.362831
     0.862087     0.362485
     0.870682     0.362179
     0.879317     0.361996
     0.887991     0.361949
     0.896706     0.361972
     0.905461     0.362103
     0.914256     0.362207
     0.923092     0.362261
     0.931968     0.362432
     0.940886     0.362753
     0.949845     0.363064
     0.958845     0.363376
     0.967886     0.363871
     0.976970     0.364278
     0.986095     0.364978
     0.995262     0.366048
      1.00447     0.367257
      1.01372     0.368520
      1.02302     0.369961
      1.03236     0.371180
      1.04174     0.372386
      1.05116     0.373706
      1.06063     0.375107
      1.07014     0.376243
      1.07970     0.377046
      1.08930     0.377468
      1.09894     0.377381
      1.10863     0.377177
      1.11836     0.376778
      1.12814     0.375974
      1.13796     0.374747
      1.14783     0.373239
      1.15774     0.370995
      1.16770     0.368293
      1.17771     0.365162
      1.18776     0.361668
      1.19786     0.357794
      1.20800     0.353568
      1.21820     0.349045
      1.22844     0.344245
      1.23872     0.339508
      1.24905     0.334784
      1.25944     0.330055
      1.26986     0.325167
      1.28034     0.320075
      1.29087     0.314592
      1.30144     0.309367
      1.31206     0.304199
      1.32274     0.298738
      1.33346     0.292819
      1.34423     0.286197
      1.35505     0.279379
      1.36592     0.272921
      1.37684     0.266769
      1.38781     0.260396
      1.39883     0.253720
      1.40991     0.246580
      1.42103     0.239456
      1.43220     0.232473
      1.44343     0.225640
      1.45471     0.218308
      1.46604     0.210386
      1.47742     0.202329
      1.48886     0.194571
      1.50035     0.187626
      1.51189     0.181507
      1.52348     0.175742
      1.53513     0.170367
      1.54683     0.166275
      1.55859     0.163445
      1.57040     0.161974
      1.58226     0.161212
      1.59418     0.160883
      1.60615     0.161183
      1.61818     0.162821
      1.63027     0.165562
      1.64241     0.168724
      1.65461     0.171618
      1.66686     0.174333
      1.67917     0.177235
      1.69153     0.181051
      1.70396     0.185574
      1.71644     0.189152
      1.72898     0.191673
      1.74157     0.193655
      1.75423     0.195822
      1.76694     0.198274
      1.77971     0.200617
      1.79254     0.202030
      1.80543     0.203265
      1.81838     0.205031
      1.83139     0.207348
      1.84446     0.209692
      1.85759     0.211854
      1.87078     0.213606
      1.88403     0.214933
      1.89734     0.216712
      1.91072     0.219085
      1.92415     0.221513
      1.93765     0.223356
      1.95121     0.224464
      1.96483     0.224613
      1.97852     0.224791
      1.99226     0.225077
      2.00608     0.225381
      2.01995     0.225813
      2.03389     0.227465
      2.04789     0.230301
      2.06196     0.233250
      2.07610     0.235282
      2.09030     0.236489
      2.10456     0.237459
      2.11889     0.238936
      2.13329     0.241110
      2.14775     0.242869
      2.16228     0.243686
      2.17687     0.243538
      2.19154     0.243429
      2.20627     0.243785
      2.22107     0.245365
      2.23594     0.247807
      2.25087     0.250812
      2.26588     0.254237
      2.28095     0.259476
      2.29610     0.266625
      2.31131     0.275666
      2.32660     0.285855
      2.34195     0.296548
      2.35738     0.307906
      2.37287     0.321181
      2.38844     0.337077
      2.40408     0.354615
      2.41979     0.373397
      2.43558     0.393122
      2.45144     0.414333
      2.46737     0.436583
      2.48337     0.461317
      2.49945     0.487453
      2.51560     0.514347
      2.53183     0.541481
      2.54813     0.569897
      2.56451     0.600779
      2.58096     0.636153
      2.59749     0.675234
      2.61410     0.715685
      2.63078     0.755936
      2.64754     0.796767
      2.66438     0.840658
      2.68129     0.886796
      2.69828     0.934918
      2.71535     0.982214
      2.73250      1.02813
      2.74973      1.07444
      2.76704      1.12383
      2.78443      1.17570
      2.80189      1.22977
      2.81944      1.28424
      2.83707      1.33864
      2.85478      1.39374
      2.87258      1.45105
      2.89045      1.51064
      2.90841      1.56945
      2.92645      1.62697
      2.94457      1.68320
      2.96278      1.73956
      2.98107      1.79839
      2.99945      1.86217
      3.01791      1.93088
      3.03645      2.00477
      3.05509      2.08308
      3.07380      2.16415
      3.09261      2.24534
      3.11150      2.32444
      3.13048      2.39864
      3.14954      2.46607
      3.16869      2.52501
      3.18794      2.57423
      3.20727      2.61278
      3.22669      2.64156
      3.24620      2.66169
      3.26580      2.67526
      3.28549      2.68439
      3.30527      2.69052
      3.32514      2.69454
      3.34510      2.69714
      3.36516      2.69892
      3.38531      2.70042
      3.40555      2.70243
      3.42588      2.70476
      3.44631      2.70720
      3.46684      2.70946
      3.48745      2.71146
      3.50817      2.71301
      3.52898      2.71460
      3.54988      2.71627
      3.57088      2.71808
      3.59198      2.71976
      3.61318      2.72111
      3.63447      2.72216
      3.65586      2.72336
      3.67735      2.72518
      3.69894      2.72759
      3.72063      2.73041
      3.74242      2.73314
      3.76431      2.73582
      3.78630      2.73866
      3.80839      2.74195
      3.83059      2.74537
      3.85288      2.74879
      3.87529      2.75166
      3.89779      2.75403
      3.92039      2.75634
      3.94311      2.75902
      3.96592      2.76194
      3.98884      2.76507
      4.01187      2.76816
      4.03501      2.77098
      4.05825      2.77405
      4.08159      2.77764
      4.10505      2.78164
      4.12861      2.78575
      4.15229      2.79010
      4.17607      2.79464
      4.19996      2.79999
      4.22396      2.80622
      4.24808      2.81286
      4.27230      2.81912
      4.29663      2.82506
      4.32108      2.83082
      4.34564      2.83670
      4.37032      2.84302
      4.39511      2.84940
      4.42001      2.85515
      4.44503      2.86004
      4.47016      2.86424
      4.49541      2.86776
      4.52077      2.87136
      4.54626      2.87530
      4.57186      2.87960
      4.59758      2.88413
      4.62341      2.88897
      4.64937      2.89395
      4.67545      2.89936
      4.70164      2.90545
      4.72796      2.91210
      4.75440      2.91903
      4.78096      2.92618
      4.80764      2.93356
      4.83445      2.94124
      4.86138      2.94929
      4.88844      2.95733
      4.91562      2.96500
      4.94292      2.97225
      4.97035      2.97950
      4.99791      2.98701
      5.02560      2.99492
      5.05341      3.00309
      5.08135      3.01130
      5.10942      3.01943
      5.13762      3.02761
      5.16595      3.03596
      5.19441      3.04440
      5.22300      3.05279
      5.25173      3.06107
      5.28058      3.06918
      5.30957      3.07704
      5.33870      3.08487
      5.36796      3.09293
      5.39735      3.10118
      5.42688      3.10968
      5.45654      3.11878
      5.48634      3.12875
      5.51628      3.13961
      5.54636      3.15148
      5.57658      3.16404
      5.60693      3.17713
      5.63743      3.19100
      5.66807      3.20579
      5.69885      3.22113
      5.72977      3.23688
      5.76083      3.25296
      5.79204      3.26869
      5.82339      3.28389
      5.85488      3.29888
      5.88652      3.31362
      5.91831      3.32772
      5.95024      3.34108
      5.98232      3.35313
      6.01455      3.36397
      6.04693      3.37443
      6.07946      3.38505
      6.11213      3.39525
      6.14496      3.40467
      6.17794      3.41356
      6.21107      3.42256
      6.24436      3.43267
      6.27780      3.44459
      6.31139      3.45771
      6.34514      3.47102
      6.37904      3.48434
      6.41310      3.49770
      6.44732      3.51144
      6.48170      3.52584
      6.51623      3.54041
      6.55092      3.55406
      6.58578      3.56631
      6.62079      3.57697
      6.65597      3.58599
      6.69130      3.59364
      6.72681      3.60013
      6.76247      3.60583
      6.79830      3.61092
      6.83430      3.61570
      6.87046      3.62029
      6.90679      3.62487
      6.94328      3.62967
      6.97995      3.63504
      7.01678      3.64121
      7.05378      3.64817
      7.09096      3.65581
      7.12831      3.66395
      7.16582      3.67251
      7.20352      3.68145
      7.24138      3.69084
      7.27942      3.70064
      7.31764      3.71080
      7.35603      3.72134
      7.39460      3.73229
      7.43335      3.74377
      7.47227      3.75602
      7.51138      3.76919
      7.55067      3.78330
      7.59014      3.79826
      7.62979      3.81385
      7.66962      3.83005
      7.70964      3.84692
      7.74984      3.86446
      7.79023      3.88251
      7.83080      3.90092
      7.87156      3.91956
      7.91251      3.93843
      7.95365      3.95771
      7.99498      3.97751
      8.03649      3.99793
      8.07821      4.01916
      8.12011      4.04130
      8.16220      4.06437
      8.20450      4.08860
      8.24698      4.11417
      8.28966      4.14103
      8.33254      4.16903
      8.37562      4.19807
      8.41890      4.22800
      8.46237      4.25878
      8.50605      4.29047
      8.54993      4.32282
      8.59401      4.35547
      8.63829      4.38817
      8.68278      4.42052
      8.72747      4.45206
      8.77237      4.48273
      8.81748      4.51239
      8.86279      4.54096
      8.90832      4.56832
      8.95405      4.59441
      9.00000      4.61917
      9.04616      4.64283
      9.09253      4.66577
      9.13911      4.68844
      9.18591      4.71127
      9.23293      4.73477
      9.28016      4.75910
      9.32762      4.78423
      9.37529      4.80998
      9.42317      4.83614
      9.47128      4.86248
      9.51962      4.88888
      9.56818      4.91501
      9.61696      4.94040
      9.66596      4.96450
      9.71519      4.98688
      9.76465      5.00723
      9.81434      5.02549
      9.86426      5.04175
      9.91440      5.05620
      9.96478      5.06901
      10.0154      5.08040
      10.0662      5.09058
      10.1173      5.09978
      10.1686      5.10834
      10.2202      5.11652
      10.2720      5.12448
      10.3240      5.13237
      10.3763      5.14027
      10.4288      5.14824
      10.4815      5.15644
      10.5345      5.16495
      10.5878      5.17379
      10.6413      5.18293
      10.6950      5.19239
      10.7490      5.20210
      10.8032      5.21216
      10.8577      5.22255
      10.9124      5.23319
      10.9674      5.24391
      11.0226      5.25473
      11.0781      5.26569
      11.1339      5.27694
      11.1899      5.28860
      11.2462      5.30063
      11.3027      5.31292
      11.3595      5.32545
      11.4165      5.33836
      11.4738      5.35176
      11.5314      5.36569
      11.5893      5.37996
      11.6474      5.39445
      11.7057      5.40891
      11.7644      5.42347
      11.8233      5.43814
      11.8825      5.45300
      11.9420      5.46797
      12.0017      5.48309
      12.0617      5.49847
      12.1220      5.51438
      12.1826      5.53091
      12.2434      5.54796
      12.3045      5.56531
      12.3660      5.58274
      12.4277      5.60023
      12.4896      5.61759
      12.5519      5.63478
      12.6144      5.65163
      12.6773      5.66803
      12.7404      5.68396
      12.8038      5.69939
      12.8676      5.71429
      12.9316      5.72877
      12.9959      5.74306
      13.0605      5.75749
      13.1254      5.77225
      13.1906      5.78729
      13.2561      5.80248
      13.3219      5.81754
      13.3880      5.83236
      13.4544      5.84692
      13.5211      5.86121
      13.5881      5.87509
      13.6555      5.88842
      13.7231      5.90103
      13.7911      5.91287
      13.8594      5.92395
      13.9279      5.93439
      13.9968      5.94428
      14.0661      5.95372
      14.1356      5.96283
      14.2055      5.97169
      14.2757      5.98036
      14.3462      5.98888
      14.4170      5.99728
      14.4882      6.00559
      14.5597      6.01383
      14.6315      6.02204
      14.7036      6.03023
      14.7761      6.03842
      14.8489      6.04664
      14.9221      6.05490
      14.9956      6.06322
      15.0694      6.07160
      15.1436      6.08007
      15.2181      6.08862
      15.2930      6.09725
      15.3682      6.10598
      15.4437      6.11479
      15.5196      6.12370
      15.5959      6.13271
      15.6725      6.14181
      15.7494      6.15100
      15.8267      6.16029
      15.9044      6.16967
      15.9824      6.17916
      16.0608      6.18875
      16.1396      6.19845
      16.2187      6.20825
      16.2982      6.21817
      16.3780      6.22820
      16.4582      6.23834
      16.5388      6.24860
      16.6198      6.25897
      16.7011      6.26946
      16.7828      6.28007
      16.8649      6.29079
      16.9473      6.30164
      17.0302      6.31260
      17.1134      6.32368
      17.1970      6.33488
      17.2810      6.34620
      17.3654      6.35765
      17.4502      6.36921
      17.5353      6.38090
      17.6209      6.39271
      17.7068      6.40465
      17.7932      6.41671
      17.8799      6.42890
      17.9671      6.44121
      18.0546      6.45364
      18.1426      6.46621
      18.2309      6.47890
      18.3197      6.49172
      18.4089      6.50467
      18.4984      6.51775
      18.5884      6.53096
      18.6789      6.54430
      18.7697      6.55778
      18.8609      6.57138
      18.9526      6.58512
      19.0447      6.59900
      19.1372      6.61300
      19.2302      6.62714
      19.3236      6.64142
      19.4174      6.65583
      19.5116      6.67038
      19.6063      6.68507
      19.7014      6.69989
      19.7970      6.71486
      19.8930      6.72996
      19.9894      6.74520
      20.0863      6.76059
      20.1836      6.77611
      20.2814      6.79178
      20.3796      6.80758
      20.4783      6.82354
      20.5774      6.83963
      20.6770      6.85587
      20.7771      6.87226
      20.8776      6.88879
      20.9786      6.90547
      21.0800      6.92230
      21.1820      6.93927
      21.2844      6.95640
      21.3872      6.97368
      21.4905      6.99110
      21.5944      7.00868
      21.6986      7.02641
      21.8034      7.04429
      21.9087      7.06233
      22.0144      7.08052
      22.1206      7.09886
      22.2274      7.11736
      22.3346      7.13602
      22.4423      7.15483
      22.5505      7.17380
      22.6592      7.19292
      22.7684      7.21221
      22.8781      7.23166
      22.9883      7.25127
      23.0991      7.27103
      23.2103      7.29096
      23.3220      7.31105
      23.4343      7.33131
      23.5471      7.35173
      23.6604      7.37232
      23.7742      7.39306
      23.8886      7.41398
      24.0035      7.43507
      24.1189      7.45633
      24.2348      7.47775
      24.3513      7.49933
      24.4683      7.52109
      24.5859      7.54301
      24.7040      7.56511
      24.8226      7.58738
      24.9418      7.60983
      25.0615      7.63244
      25.1818      7.65523
      25.3027      7.67819
      25.4241      7.70133
      25.5461      7.72464
      25.6686      7.74813
      25.7917      7.77179
      25.9153      7.79563
      26.0396      7.81965
      26.1644      7.84384
      26.2898      7.86820
      26.4157      7.89276
      26.5423      7.91749
      26.6694      7.94240
      26.7971      7.96749
      26.9254      7.99277
      27.0543      8.01823
      27.1838      8.04389
      27.3139      8.06973
      27.4446      8.09575
      27.5759      8.12195
      27.7078      8.14835
      27.8403      8.17494
      27.9734      8.20173
      28.1072      8.22870
      28.2415      8.25587
      28.3765      8.28323
      28.5121      8.31078
      28.6483      8.33854
      28.7852      8.36650
      28.9226      8.39465
      29.0608      8.42300
      29.1995      8.45154
      29.3389      8.48027
      29.4789      8.50922
      29.6196      8.53837
      29.7610      8.56773
      29.9030      8.59729
      30.0456      8.62706
      30.1889      8.65704
      30.3329      8.68724
      30.4775      8.71765
      30.6228      8.74827
      30.7687      8.77909
      30.9154      8.81011
      31.0627      8.84134
      31.2107      8.87279
      31.3594      8.90445
      31.5087      8.93633
      31.6588      8.96842
      31.8095      9.00072
      31.9610      9.03322
      32.1131      9.06595
      32.2660      9.09891
      32.4195      9.13210
      32.5738      9.16551
      32.7287      9.19913
      32.8844      9.23297
      33.0408      9.26703
      33.1979      9.30133
      33.3558      9.33587
      33.5144      9.37065
      33.6737      9.40568
      33.8337      9.44095
      33.9945      9.47648
      34.1560      9.51228
      34.3183      9.54837
      34.4813      9.58477
      34.6451      9.62149
      34.8096      9.65856
      34.9749      9.69602
      35.1410      9.73389
      35.3078      9.77223
      35.4754      9.81107
      35.6438      9.85046
      35.8129      9.89043
      35.9828      9.93106
      36.1535      9.97239
      36.3250      10.0145
      36.4973      10.0575
      36.6704      10.1014
      36.8443      10.1464
      37.0189      10.1925
      37.1944      10.2398
      37.3707      10.2886
      37.5478      10.3388
      37.7258      10.3908
      37.9045      10.4447
      38.0841      10.5007
      38.2645      10.5591
      38.4457      10.6201
      38.6278      10.6842
      38.8107      10.7517
      38.9945      10.8230
      39.1791      10.8988
      39.3645      10.9797
      39.5509      11.0667
      39.7380      11.1608
      39.9261      11.2635
      40.1150      11.3764
      40.3048      11.5022
      40.4954      11.6441
      40.6869      11.8073
      40.8794      11.9992
      41.0727      12.2323
      41.2669      12.5294
      41.4620      12.9399
      41.6580      13.6075
      41.8549      15.6641
      42.0527         -NaN
      42.2514         -NaN
      42.4510         -NaN
      42.6516         -NaN
      42.8531         -NaN
      43.0555         -NaN
      43.2588         -NaN
      43.4631         -NaN
      43.6684         -NaN
      43.8745         -NaN
      44.0817         -NaN
      44.2898         -NaN
      44.4988         -NaN
      44.7088         -NaN
      44.9198         -NaN
      45.1318         -NaN
      45.3447         -NaN
      45.5586         -NaN
      45.7735         -NaN
      45.9894         -NaN
      46.2063         -NaN
      46.4242         -NaN
      46.6431         -NaN
      46.8630         -NaN
      47.0839         -NaN
      47.3059         -NaN
      47.5289         -NaN
      47.7528         -NaN
      47.9779         -NaN
      48.2040         -NaN
      48.4311         -NaN
      48.6592         -NaN
      48.8884         -NaN
      49.1187         -NaN
      49.3501         -NaN
      49.5825         -NaN
      49.8159         -NaN
      50.0505         -NaN
      50.2861         -NaN
      50.5229         -NaN
      50.7607         -NaN
      50.9996         -NaN
      51.2396         -NaN
      51.4808         -NaN
      51.7230         -NaN
      51.9663         -NaN
      52.2108         -NaN
      52.4564         -NaN
      52.7032         -NaN
      52.9511         -NaN
      53.2001         -NaN
      53.4503         -NaN
      53.7016         -NaN
      53.9541         -NaN
      54.2077         -NaN
      54.4626         -NaN
      54.7186         -NaN
      54.9758         -NaN
      55.2341         -NaN
      55.4937         -NaN
      55.7545         -NaN
      56.0164         -NaN
      56.2796         -NaN
      56.5440         -NaN
      56.8096         -NaN
      57.0765         -NaN
      57.3445         -NaN
      57.6138         -NaN
      57.8844         -NaN
      58.1562         -NaN
      58.4292         -NaN
      58.7035         -NaN
      58.9791         -NaN
      59.2560         -NaN
      59.5341         -NaN
      59.8135         -NaN
      60.0942         -NaN
      60.3762         -NaN
      60.6595         -NaN
      60.9441         -NaN
      61.2300         -NaN
      61.5173         -NaN
      61.8058         -NaN
      62.0957         -NaN
      62.3870         -NaN
      62.6796         -NaN
      62.9735         -NaN
      63.2688         -NaN
      63.5654         -NaN
      63.8634         -NaN
      64.1628         -NaN
      64.4636         -NaN
      64.7658         -NaN
      65.0694         -NaN
      65.3743         -NaN
      65.6807         -NaN
      65.9885         -NaN
      66.2977         -NaN
      66.6083         -NaN
      66.9204         -NaN
      67.2339         -NaN
      67.5488         -NaN
      67.8652         -NaN
      68.1831         -NaN
      68.5024         -NaN
      68.8232         -NaN
      69.1455         -NaN
      69.4693         -NaN
      69.7946         -NaN
      70.1214         -NaN
      70.4496         -NaN
      70.7794         -NaN
      71.1108         -NaN
      71.4436         -NaN
      71.7780         -NaN
      72.1139         -NaN
      72.4514         -NaN
      72.7904         -NaN
      73.1310         -NaN
      73.4732         -NaN
      73.8169         -NaN
      74.1623         -NaN
      74.5092         -NaN
      74.8578         -NaN
      75.2079         -NaN
      75.5597         -NaN
      75.9130         -NaN
      76.2681         -NaN
      76.6247         -NaN
      76.9830         -NaN
      77.3430         -NaN
      77.7046         -NaN
      78.0679         -NaN
      78.4328         -NaN
      78.7995         -NaN
      79.1678         -NaN
      79.5378         -NaN
      79.9096         -NaN
      80.2830         -NaN
      80.6582         -NaN
      81.0352         -NaN
      81.4138         -NaN
      81.7942         -NaN
      82.1764         -NaN
      82.5603         -NaN
      82.9460         -NaN
      83.3335         -NaN
      83.7227         -NaN
      84.1138         -NaN
      84.5067         -NaN
      84.9014         -NaN
      85.2979         -NaN
      85.6962         -NaN
      86.0964         -NaN
      86.4984         -NaN
      86.9023         -NaN
      87.3080         -NaN
      87.7156         -NaN
      88.1251         -NaN
      88.5365         -NaN
      88.9498         -NaN
      89.3649         -NaN
      89.7820         -NaN
      90.2011         -NaN
      90.6221         -NaN
      91.0450         -NaN
      91.4698         -NaN
      91.8967         -NaN
      92.3254         -NaN
      92.7562         -NaN
      93.1890         -NaN
      93.6237         -NaN
      94.0605         -NaN
      94.4993         -NaN
      94.9401         -NaN
      95.3829         -NaN
      95.8278         -NaN
      96.2747         -NaN
      96.7237         -NaN
      97.1748         -NaN
      97.6279         -NaN
      98.0832         -NaN
      98.5406         -NaN

----------------------------------------------------------------------
SPECTRUM: CWW_Im_ext
FILTER:        SDSS u + CCD, [MT]  no atmosphere (Ref. F. Castander)
----------------------------------------------------------------------
      0.00000      0.00000
   0.00461578   0.00967334
   0.00925291    0.0194316
    0.0139114    0.0293905
    0.0185914    0.0391628
    0.0232930    0.0490414
    0.0280163    0.0597423
    0.0327615    0.0712802
    0.0375284    0.0831548
    0.0423174    0.0947240
    0.0471286     0.105216
    0.0519619     0.114066
    0.0568175     0.121156
    0.0616956     0.126651
    0.0665962     0.130788
    0.0715193     0.133868
    0.0764652     0.136199
    0.0814340     0.138039
    0.0864257     0.139585
    0.0914403     0.141010
    0.0964782     0.142393
     0.101539     0.143761
     0.106624     0.145117
     0.111732     0.146437
     0.116863     0.147685
     0.122018     0.148836
     0.127198     0.149861
     0.132400     0.150744
     0.137627     0.151475
     0.142878     0.152052
     0.148154     0.152477
     0.153453     0.152752
     0.158777     0.152880
     0.164126     0.152861
     0.169499     0.152695
     0.174898     0.152382
     0.180321     0.151928
     0.185769     0.151335
     0.191242     0.150608
     0.196741     0.149754
     0.202264     0.148775
     0.207814     0.147675
     0.213389     0.146455
     0.218990     0.145121
     0.224616     0.143674
     0.230269     0.142120
     0.235947     0.140462
     0.241652     0.138704
     0.247383     0.136848
     0.253141     0.134898
     0.258925     0.132858
     0.264736     0.130733
     0.270574     0.128528
     0.276439     0.126244
     0.282331     0.123883
     0.288249     0.121449
     0.294196     0.118946
     0.300170     0.116378
     0.306171     0.113750
     0.312200     0.111066
     0.318257     0.108328
     0.324342     0.105538
     0.330454     0.102697
     0.336596    0.0998104
     0.342765    0.0968803
     0.348963    0.0939116
     0.355189    0.0909073
     0.361445    0.0878713
     0.367729    0.0848048
     0.374042    0.0817090
     0.380384    0.0785868
     0.386756    0.0754395
     0.393157    0.0722706
     0.399587    0.0690819
     0.406048    0.0658767
     0.412538    0.0626562
     0.419057    0.0594218
     0.425608    0.0561754
     0.432188    0.0529181
     0.438799    0.0496531
     0.445440    0.0463819
     0.452112    0.0431061
     0.458814    0.0398289
     0.465548    0.0365503
     0.472312    0.0332723
     0.479108    0.0299951
     0.485936    0.0267205
     0.492794    0.0234492
     0.499685    0.0201827
     0.506607    0.0169213
     0.513561    0.0136658
     0.520548    0.0104172
     0.527566   0.00717590
     0.534617   0.00394316
     0.541700  0.000719003
     0.548817  -0.00249348
     0.555966  -0.00569552
     0.563148  -0.00888388
     0.570363   -0.0120577
     0.577611   -0.0152144
     0.584893   -0.0183527
     0.592209   -0.0214711
     0.599558   -0.0245683
     0.606941   -0.0276432
     0.614359   -0.0306938
     0.621810   -0.0337185
     0.629296   -0.0367154
     0.636817   -0.0396810
     0.644372   -0.0426138
     0.651962   -0.0455123
     0.659587   -0.0483720
     0.667247   -0.0511899
     0.674943   -0.0539632
     0.682674   -0.0566895
     0.690441   -0.0593661
     0.698244   -0.0619927
     0.706082   -0.0645661
     0.713957   -0.0670825
     0.721869   -0.0695397
     0.729816   -0.0719344
     0.737801   -0.0742653
     0.745822   -0.0765290
     0.753881   -0.0787207
     0.761976   -0.0808368
     0.770109   -0.0828717
     0.778279   -0.0848243
     0.786488   -0.0866922
     0.794734   -0.0884721
     0.803018   -0.0901630
     0.811340   -0.0917611
     0.819701   -0.0932626
     0.828100   -0.0946718
     0.836538   -0.0959880
     0.845015   -0.0972089
     0.853532   -0.0983312
     0.862087   -0.0993525
     0.870682    -0.100271
     0.879317    -0.101089
     0.887991    -0.101805
     0.896706    -0.102420
     0.905461    -0.102931
     0.914256    -0.103342
     0.923092    -0.103654
     0.931968    -0.103872
     0.940886    -0.104001
     0.949845    -0.104040
     0.958845    -0.103989
     0.967886    -0.103848
     0.976970    -0.103621
     0.986095    -0.103310
     0.995262    -0.102917
      1.00447    -0.102441
      1.01372    -0.101882
      1.02302    -0.101245
      1.03236    -0.100535
      1.04174   -0.0997590
      1.05116   -0.0989205
      1.06063   -0.0980211
      1.07014   -0.0970619
      1.07970   -0.0960483
      1.08930   -0.0949916
      1.09894   -0.0939076
      1.10863   -0.0928120
      1.11836   -0.0917187
      1.12814   -0.0906429
      1.13796   -0.0896018
      1.14783   -0.0886061
      1.15774   -0.0876684
      1.16770   -0.0867891
      1.17771   -0.0859492
      1.18776   -0.0851272
      1.19786   -0.0842965
      1.20800   -0.0834295
      1.21820   -0.0825755
      1.22844   -0.0818164
      1.23872   -0.0811300
      1.24905   -0.0805655
      1.25944   -0.0801631
      1.26986   -0.0800106
      1.28034   -0.0802384
      1.29087   -0.0808923
      1.30144   -0.0817154
      1.31206   -0.0827334
      1.32274   -0.0841280
      1.33346   -0.0858538
      1.34423   -0.0879329
      1.35505   -0.0902346
      1.36592   -0.0926685
      1.37684   -0.0952625
      1.38781   -0.0983581
      1.39883    -0.101822
      1.40991    -0.105565
      1.42103    -0.109449
      1.43220    -0.113501
      1.44343    -0.117641
      1.45471    -0.122296
      1.46604    -0.127464
      1.47742    -0.132614
      1.48886    -0.137358
      1.50035    -0.141570
      1.51189    -0.145407
      1.52348    -0.149307
      1.53513    -0.153298
      1.54683    -0.156542
      1.55859    -0.158994
      1.57040    -0.160761
      1.58226    -0.162444
      1.59418    -0.164176
      1.60615    -0.165638
      1.61818    -0.166036
      1.63027    -0.165480
      1.64241    -0.164557
      1.65461    -0.163961
      1.66686    -0.163633
      1.67917    -0.163182
      1.69153    -0.161902
      1.70396    -0.159901
      1.71644    -0.158743
      1.72898    -0.158584
      1.74157    -0.158978
      1.75423    -0.159230
      1.76694    -0.159222
      1.77971    -0.159271
      1.79254    -0.160126
      1.80543    -0.161052
      1.81838    -0.161433
      1.83139    -0.161326
      1.84446    -0.161151
      1.85759    -0.161042
      1.87078    -0.161202
      1.88403    -0.161704
      1.89734    -0.161790
      1.91072    -0.161375
      1.92415    -0.160915
      1.93765    -0.160939
      1.95121    -0.161553
      1.96483    -0.163012
      1.97852    -0.164421
      1.99226    -0.165770
      2.00608    -0.167134
      2.01995    -0.168281
      2.03389    -0.168051
      2.04789    -0.166510
      2.06196    -0.164788
      2.07610    -0.163949
      2.09030    -0.163895
      2.10456    -0.163968
      2.11889    -0.163374
      2.13329    -0.161928
      2.14775    -0.160780
      2.16228    -0.160480
      2.17687    -0.161086
      2.19154    -0.161622
      2.20627    -0.161683
      2.22107    -0.160514
      2.23594    -0.158523
      2.25087    -0.156029
      2.26588    -0.153194
      2.28095    -0.148636
      2.29610    -0.142234
      2.31131    -0.133970
      2.32660    -0.124576
      2.34195    -0.114689
      2.35738    -0.104146
      2.37287   -0.0916936
      2.38844   -0.0766144
      2.40408   -0.0598695
      2.41979   -0.0418525
      2.43558   -0.0228660
      2.45144  -0.00235948
      2.46737    0.0192184
      2.48337    0.0433219
      2.49945    0.0688928
      2.51560    0.0952930
      2.53183     0.121994
      2.54813     0.150030
      2.56451     0.180575
      2.58096     0.215638
      2.59749     0.254429
      2.61410     0.294605
      2.63078     0.334594
      2.64754     0.375174
      2.66438     0.418839
      2.68129     0.464770
      2.69828     0.512707
      2.71535     0.559847
      2.73250     0.605654
      2.74973     0.651890
      2.76704     0.701249
      2.78443     0.753113
      2.80189     0.807169
      2.81944     0.861612
      2.83707     0.915974
      2.85478     0.971028
      2.87258      1.02828
      2.89045      1.08780
      2.90841      1.14654
      2.92645      1.20400
      2.94457      1.26020
      2.96278      1.31658
      2.98107      1.37547
      2.99945      1.43938
      3.01791      1.50828
      3.03645      1.58242
      3.05509      1.66105
      3.07380      1.74251
      3.09261      1.82415
      3.11150      1.90375
      3.13048      1.97847
      3.14954      2.04644
      3.16869      2.10589
      3.18794      2.15557
      3.20727      2.19452
      3.22669      2.22362
      3.24620      2.24401
      3.26580      2.25778
      3.28549      2.26707
      3.30527      2.27333
      3.32514      2.27746
      3.34510      2.28017
      3.36516      2.28204
      3.38531      2.28364
      3.40555      2.28574
      3.42588      2.28818
      3.44631      2.29072
      3.46684      2.29309
      3.48745      2.29518
      3.50817      2.29683
      3.52898      2.29851
      3.54988      2.30028
      3.57088      2.30219
      3.59198      2.30397
      3.61318      2.30541
      3.63447      2.30655
      3.65586      2.30784
      3.67735      2.30976
      3.69894      2.31227
      3.72063      2.31520
      3.74242      2.31804
      3.76431      2.32083
      3.78630      2.32378
      3.80839      2.32719
      3.83059      2.33073
      3.85288      2.33427
      3.87529      2.33726
      3.89779      2.33974
      3.92039      2.34216
      3.94311      2.34495
      3.96592      2.34799
      3.98884      2.35124
      4.01187      2.35445
      4.03501      2.35738
      4.05825      2.36057
      4.08159      2.36429
      4.10505      2.36842
      4.12861      2.37267
      4.15229      2.37715
      4.17607      2.38184
      4.19996      2.38734
      4.22396      2.39374
      4.24808      2.40055
      4.27230      2.40699
      4.29663      2.41309
      4.32108      2.41901
      4.34564      2.42506
      4.37032      2.43156
      4.39511      2.43811
      4.42001      2.44404
      4.44503      2.44908
      4.47016      2.45343
      4.49541      2.45708
      4.52077      2.46082
      4.54626      2.46489
      4.57186      2.46935
      4.59758      2.47403
      4.62341      2.47903
      4.64937      2.48417
      4.67545      2.48975
      4.70164      2.49602
      4.72796      2.50286
      4.75440      2.50999
      4.78096      2.51734
      4.80764      2.52494
      4.83445      2.53283
      4.86138      2.54110
      4.88844      2.54937
      4.91562      2.55726
      4.94292      2.56473
      4.97035      2.57218
      4.99791      2.57991
      5.02560      2.58805
      5.05341      2.59646
      5.08135      2.60490
      5.10942      2.61327
      5.13762      2.62170
      5.16595      2.63030
      5.19441      2.63899
      5.22300      2.64765
      5.25173      2.65619
      5.28058      2.66456
      5.30957      2.67267
      5.33870      2.68075
      5.36796      2.68908
      5.39735      2.69759
      5.42688      2.70636
      5.45654      2.71575
      5.48634      2.72603
      5.51628      2.73721
      5.54636      2.74944
      5.57658      2.76238
      5.60693      2.77586
      5.63743      2.79015
      5.66807      2.80538
      5.69885      2.82119
      5.72977      2.83742
      5.76083      2.85400
      5.79204      2.87024
      5.82339      2.88592
      5.85488      2.90141
      5.88652      2.91663
      5.91831      2.93121
      5.95024      2.94503
      5.98232      2.95750
      6.01455      2.96874
      6.04693      2.97958
      6.07946      2.99058
      6.11213      3.00117
      6.14496      3.01093
      6.17794      3.02016
      6.21107      3.02951
      6.24436      3.04000
      6.27780      3.05235
      6.31139      3.06596
      6.34514      3.07975
      6.37904      3.09357
      6.41310      3.10743
      6.44732      3.12168
      6.48170      3.13662
      6.51623      3.15174
      6.55092      3.16592
      6.58578      3.17864
      6.62079      3.18971
      6.65597      3.19910
      6.69130      3.20705
      6.72681      3.21380
      6.76247      3.21973
      6.79830      3.22502
      6.83430      3.22999
      6.87046      3.23476
      6.90679      3.23951
      6.94328      3.24450
      6.97995      3.25008
      7.01678      3.25649
      7.05378      3.26372
      7.09096      3.27166
      7.12831      3.28010
      7.16582      3.28900
      7.20352      3.29827
      7.24138      3.30803
      7.27942      3.31821
      7.31764      3.32877
      7.35603      3.33972
      7.39460      3.35110
      7.43335      3.36303
      7.47227      3.37577
      7.51138      3.38948
      7.55067      3.40417
      7.59014      3.41975
      7.62979      3.43600
      7.66962      3.45290
      7.70964      3.47050
      7.74984      3.48881
      7.79023      3.50766
      7.83080      3.52690
      7.87156      3.54639
      7.91251      3.56614
      7.95365      3.58633
      7.99498      3.60706
      8.03649      3.62848
      8.07821      3.65075
      8.12011      3.67401
      8.16220      3.69827
      8.20450      3.72378
      8.24698      3.75073
      8.28966      3.77907
      8.33254      3.80866
      8.37562      3.83939
      8.41890      3.87111
      8.46237      3.90379
      8.50605      3.93747
      8.54993      3.97192
      8.59401      4.00676
      8.63829      4.04169
      8.68278      4.07632
      8.72747      4.11014
      8.77237      4.14306
      8.81748      4.17496
      8.86279      4.20571
      8.90832      4.23518
      8.95405      4.26332
      9.00000      4.29005
      9.04616      4.31559
      9.09253      4.34037
      9.13911      4.36489
      9.18591      4.38961
      9.23293      4.41509
      9.28016      4.44152
      9.32762      4.46887
      9.37529      4.49696
      9.42317      4.52554
      9.47128      4.55436
      9.51962      4.58330
      9.56818      4.61199
      9.61696      4.63988
      9.66596      4.66638
      9.71519      4.69096
      9.76465      4.71328
      9.81434      4.73326
      9.86426      4.75100
      9.91440      4.76667
      9.96478      4.78049
      10.0154      4.79269
      10.0662      4.80350
      10.1173      4.81319
      10.1686      4.82215
      10.2202      4.83065
      10.2720      4.83890
      10.3240      4.84705
      10.3763      4.85520
      10.4288      4.86342
      10.4815      4.87189
      10.5345      4.88070
      10.5878      4.88987
      10.6413      4.89937
      10.6950      4.90922
      10.7490      4.91935
      10.8032      4.92986
      10.8577      4.94073
      10.9124      4.95188
      10.9674      4.96311
      11.0226      4.97444
      11.0781      4.98591
      11.1339      4.99771
      11.1899      5.00997
      11.2462      5.02263
      11.3027      5.03558
      11.3595      5.04879
      11.4165      5.06244
      11.4738      5.07662
      11.5314      5.09140
      11.5893      5.10657
      11.6474      5.12196
      11.7057      5.13732
      11.7644      5.15276
      11.8233      5.16833
      11.8825      5.18410
      11.9420      5.19999
      12.0017      5.21603
      12.0617      5.23236
      12.1220      5.24929
      12.1826      5.26692
      12.2434      5.28516
      12.3045      5.30372
      12.3660      5.32237
      12.4277      5.34108
      12.4896      5.35963
      12.5519      5.37797
      12.6144      5.39590
      12.6773      5.41331
      12.7404      5.43013
      12.8038      5.44637
      12.8676      5.46196
      12.9316      5.47706
      12.9959      5.49192
      13.0605      5.50692
      13.1254      5.52229
      13.1906      5.53797
      13.2561      5.55381
      13.3219      5.56949
      13.3880      5.58486
      13.4544      5.59990
      13.5211      5.61462
      13.5881      5.62884
      13.6555      5.64237
      13.7231      5.65506
      13.7911      5.66681
      13.8594      5.67765
      13.9279      5.68771
      13.9968      5.69711
      14.0661      5.70596
      14.1356      5.71440
      14.2055      5.72253
      14.2757      5.73042
      14.3462      5.73811
      14.4170      5.74566
      14.4882      5.75307
      14.5597      5.76040
      14.6315      5.76767
      14.7036      5.77491
      14.7761      5.78214
      14.8489      5.78938
      14.9221      5.79666
      14.9956      5.80399
      15.0694      5.81139
      15.1436      5.81887
      15.2181      5.82642
      15.2930      5.83407
      15.3682      5.84180
      15.4437      5.84963
      15.5196      5.85755
      15.5959      5.86557
      15.6725      5.87368
      15.7494      5.88188
      15.8267      5.89018
      15.9044      5.89858
      15.9824      5.90708
      16.0608      5.91569
      16.1396      5.92441
      16.2187      5.93323
      16.2982      5.94217
      16.3780      5.95123
      16.4582      5.96041
      16.5388      5.96970
      16.6198      5.97911
      16.7011      5.98864
      16.7828      5.99830
      16.8649      6.00807
      16.9473      6.01796
      17.0302      6.02798
      17.1134      6.03811
      17.1970      6.04837
      17.2810      6.05875
      17.3654      6.06926
      17.4502      6.07989
      17.5353      6.09065
      17.6209      6.10153
      17.7068      6.11255
      17.7932      6.12369
      17.8799      6.13496
      17.9671      6.14637
      18.0546      6.15790
      18.1426      6.16957
      18.2309      6.18137
      18.3197      6.19330
      18.4089      6.20536
      18.4984      6.21756
      18.5884      6.22989
      18.6789      6.24235
      18.7697      6.25494
      18.8609      6.26768
      18.9526      6.28054
      19.0447      6.29355
      19.1372      6.30669
      19.2302      6.31997
      19.3236      6.33339
      19.4174      6.34695
      19.5116      6.36065
      19.6063      6.37449
      19.7014      6.38847
      19.7970      6.40260
      19.8930      6.41687
      19.9894      6.43128
      20.0863      6.44584
      20.1836      6.46054
      20.2814      6.47539
      20.3796      6.49039
      20.4783      6.50553
      20.5774      6.52082
      20.6770      6.53626
      20.7771      6.55185
      20.8776      6.56758
      20.9786      6.58347
      21.0800      6.59950
      21.1820      6.61569
      21.2844      6.63203
      21.3872      6.64853
      21.4905      6.66518
      21.5944      6.68199
      21.6986      6.69895
      21.8034      6.71607
      21.9087      6.73335
      22.0144      6.75078
      22.1206      6.76838
      22.2274      6.78614
      22.3346      6.80405
      22.4423      6.82213
      22.5505      6.84036
      22.6592      6.85876
      22.7684      6.87732
      22.8781      6.89605
      22.9883      6.91494
      23.0991      6.93399
      23.2103      6.95321
      23.3220      6.97259
      23.4343      6.99215
      23.5471      7.01187
      23.6604      7.03176
      23.7742      7.05182
      23.8886      7.07205
      24.0035      7.09245
      24.1189      7.11303
      24.2348      7.13377
      24.3513      7.15469
      24.4683      7.17577
      24.5859      7.19703
      24.7040      7.21846
      24.8226      7.24008
      24.9418      7.26187
      25.0615      7.28383
      25.1818      7.30597
      25.3027      7.32828
      25.4241      7.35078
      25.5461      7.37345
      25.6686      7.39631
      25.7917      7.41935
      25.9153      7.44256
      26.0396      7.46595
      26.1644      7.48952
      26.2898      7.51328
      26.4157      7.53722
      26.5423      7.56135
      26.6694      7.58566
      26.7971      7.61014
      26.9254      7.63482
      27.0543      7.65969
      27.1838      7.68476
      27.3139      7.71001
      27.4446      7.73544
      27.5759      7.76106
      27.7078      7.78688
      27.8403      7.81289
      27.9734      7.83911
      28.1072      7.86551
      28.2415      7.89211
      28.3765      7.91891
      28.5121      7.94590
      28.6483      7.97310
      28.7852      8.00051
      28.9226      8.02811
      29.0608      8.05591
      29.1995      8.08391
      29.3389      8.11211
      29.4789      8.14052
      29.6196      8.16914
      29.7610      8.19797
      29.9030      8.22700
      30.0456      8.25625
      30.1889      8.28572
      30.3329      8.31540
      30.4775      8.34530
      30.6228      8.37540
      30.7687      8.40571
      30.9154      8.43623
      31.0627      8.46696
      31.2107      8.49790
      31.3594      8.52907
      31.5087      8.56046
      31.6588      8.59206
      31.8095      8.62386
      31.9610      8.65588
      32.1131      8.68813
      32.2660      8.72060
      32.4195      8.75331
      32.5738      8.78624
      32.7287      8.81938
      32.8844      8.85274
      33.0408      8.88633
      33.1979      8.92015
      33.3558      8.95422
      33.5144      8.98853
      33.6737      9.02309
      33.8337      9.05791
      33.9945      9.09298
      34.1560      9.12832
      34.3183      9.16397
      34.4813      9.19991
      34.6451      9.23619
      34.8096      9.27282
      34.9749      9.30983
      35.1410      9.34726
      35.3078      9.38515
      35.4754      9.42354
      35.6438      9.46247
      35.8129      9.50198
      35.9828      9.54212
      36.1535      9.58297
      36.3250      9.62460
      36.4973      9.66708
      36.6704      9.71048
      36.8443      9.75489
      37.0189      9.80042
      37.1944      9.84718
      37.3707      9.89531
      37.5478      9.94494
      37.7258      9.99624
      37.9045      10.0494
      38.0841      10.1046
      38.2645      10.1622
      38.4457      10.2223
      38.6278      10.2853
      38.8107      10.3517
      38.9945      10.4218
      39.1791      10.4961
      39.3645      10.5755
      39.5509      10.6606
      39.7380      10.7526
      39.9261      10.8526
      40.1150      10.9625
      40.3048      11.0844
      40.4954      11.2215
      40.6869      11.3782
      40.8794      11.5612
      41.0727      11.7814
      41.2669      12.0578
      41.4620      12.4295
      41.6580      12.9991
      41.8549      14.2699
      42.0527         -NaN
      42.2514         -NaN
      42.4510         -NaN
      42.6516         -NaN
      42.8531         -NaN
      43.0555         -NaN
      43.2588         -NaN
      43.4631         -NaN
      43.6684         -NaN
      43.8745         -NaN
      44.0817         -NaN
      44.2898         -NaN
      44.4988         -NaN
      44.7088         -NaN
      44.9198         -NaN
      45.1318         -NaN
      45.3447         -NaN
      45.5586         -NaN
      45.7735         -NaN
      45.9894         -NaN
      46.2063         -NaN
      46.4242         -NaN
      46.6431         -NaN
      46.8630         -NaN
      47.0839         -NaN
      47.3059         -NaN
      47.5289         -NaN
      47.7528         -NaN
      47.9779         -NaN
      48.2040         -NaN
      48.4311         -NaN
      48.6592         -NaN
      48.8884         -NaN
      49.1187         -NaN
      49.3501         -NaN
      49.5825         -NaN
      49.8159         -NaN
      50.0505         -NaN
      50.2861         -NaN
      50.5229         -NaN
      50.7607         -NaN
      50.9996         -NaN
      51.2396         -NaN
      51.4808         -NaN
      51.7230         -NaN
      51.9663         -NaN
      52.2108         -NaN
      52.4564         -NaN
      52.7032         -NaN
      52.9511         -NaN
      53.2001         -NaN
      53.4503         -NaN
      53.7016         -NaN
      53.9541         -NaN
      54.2077         -NaN
      54.4626         -NaN
      54.7186         -NaN
      54.9758         -NaN
      55.2341         -NaN
      55.4937         -NaN
      55.7545         -NaN
      56.0164         -NaN
      56.2796         -NaN
      56.5440         -NaN
      56.8096         -NaN
      57.0765         -NaN
      57.3445         -NaN
      57.6138         -NaN
      57.8844         -NaN
      58.1562         -NaN
      58.4292         -NaN
      58.7035         -NaN
      58.9791         -NaN
      59.2560         -NaN
      59.5341         -NaN
      59.8135         -NaN
      60.0942         -NaN
      60.3762         -NaN
      60.6595         -NaN
      60.9441         -NaN
      61.2300         -NaN
      61.5173         -NaN
      61.8058         -NaN
      62.0957         -NaN
      62.3870         -NaN
      62.6796         -NaN
      62.9735         -NaN
      63.2688         -NaN
      63.5654         -NaN
      63.8634         -NaN
      64.1628         -NaN
      64.4636         -NaN
      64.7658         -NaN
      65.0694         -NaN
      65.3743         -NaN
      65.6807         -NaN
      65.9885         -NaN
      66.2977         -NaN
      66.6083         -NaN
      66.9204         -NaN
      67.2339         -NaN
      67.5488         -NaN
      67.8652         -NaN
      68.1831         -NaN
      68.5024         -NaN
      68.8232         -NaN
      69.1455         -NaN
      69.4693         -NaN
      69.7946         -NaN
      70.1214         -NaN
      70.4496         -NaN
      70.7794         -NaN
      71.1108         -NaN
      71.4436         -NaN
      71.7780         -NaN
      72.1139         -NaN
      72.4514         -NaN
      72.7904         -NaN
      73.1310         -NaN
      73.4732         -NaN
      73.8169         -NaN
      74.1623         -NaN
      74.5092         -NaN
      74.8578         -NaN
      75.2079         -NaN
      75.5597         -NaN
      75.9130         -NaN
      76.2681         -NaN
      76.6247         -NaN
      76.9830         -NaN
      77.3430         -NaN
      77.7046         -NaN
      78.0679         -NaN
      78.4328         -NaN
      78.7995         -NaN
      79.1678         -NaN
      79.5378         -NaN
      79.9096         -NaN
      80.2830         -NaN
      80.6582         -NaN
      81.0352         -NaN
      81.4138         -NaN
      81.7942         -NaN
      82.1764         -NaN
      82.5603         -NaN
      82.9460         -NaN
      83.3335         -NaN
      83.7227         -NaN
      84.1138         -NaN
      84.5067         -NaN
      84.9014         -NaN
      85.2979         -NaN
      85.6962         -NaN
      86.0964         -NaN
      86.4984         -NaN
      86.9023         -NaN
      87.3080         -NaN
      87.7156         -NaN
      88.1251         -NaN
      88.5365         -NaN
      88.9498         -NaN
      89.3649         -NaN
      89.7820         -NaN
      90.2011         -NaN
      90.6221         -NaN
      91.0450         -NaN
      91.4698         -NaN
      91.8967         -NaN
      92.3254         -NaN
      92.7562         -NaN
      93.1890         -NaN
      93.6237         -NaN
      94.0605         -NaN
      94.4993         -NaN
      94.9401         -NaN
      95.3829         -NaN
      95.8278         -NaN
      96.2747         -NaN
      96.7237         -NaN
      97.1748         -NaN
      97.6279         -NaN
      98.0832         -NaN
      98.5406         -NaN

